rt,url,experiment_phase,refresh_count,trial_type,trial_index,time_elapsed,experiment_name,assignmentId,hitId,workerId,turkSubmitTo,previewMode,outsideTurk,platform,start_time,condition,end_time,total_time,ip_address,version_date,anon_id,debug_mode,completion_code,seed,redirect_url,worker_info,browser_events,success,screen_width,screen_height,window_width,window_height,form_name,form_id,instructions_viewed_count,view_history,stimulus,key_press,key_name,response_label,stimulus_number,attention_check_on,attention_check_passed,image_shown_count,repeat,responses,form_data,sona_id
23030.0,src/html/consent.html,consent,1,render-mustache-template,0,23159,judging_faces,,,,,False,True,turk,2025-03-25T16:08:58Z,gad,2025-03-25T16:22:00Z,779714,"""100.64.0.2""",2025-03-11,b7rgecm91q5gwpo,False,2785118609-exa-1898957330-mple,1742918938773,https://uiuc.sona-systems.com/webstudy_credit.aspxexperiment_id=&credit_token=&survey_code=,"{'assignmentId': '', 'hitId': '', 'workerId': '', 'turkSubmitTo': '', 'previewMode': False, 'outsideTurk': True, 'platform': 'turk'}","[{'event': 'blur', 'time': 6354}, {'event': 'focus', 'time': 6519}, {'event': 'blur', 'time': 13698}, {'event': 'focus', 'time': 13870}]",,,,,,,,,,,,,,,,,,,,,
,,,1,fullscreen,1,33063,judging_faces,,,,,False,True,turk,2025-03-25T16:08:58Z,gad,2025-03-25T16:22:00Z,779714,"""100.64.0.2""",2025-03-11,b7rgecm91q5gwpo,False,2785118609-exa-1898957330-mple,1742918938773,https://uiuc.sona-systems.com/webstudy_credit.aspxexperiment_id=&credit_token=&survey_code=,"{'assignmentId': '', 'hitId': '', 'workerId': '', 'turkSubmitTo': '', 'previewMode': False, 'outsideTurk': True, 'platform': 'turk'}","[{'event': 'fullscreenenter', 'time': 32991}]",True,1440.0,900.0,1440.0,900.0,,,,,,,,,,,,,,,,
39307.0,src/html/attrition.html,attrition,1,render-mustache-template,2,72713,judging_faces,,,,,False,True,turk,2025-03-25T16:08:58Z,gad,2025-03-25T16:22:00Z,779714,"""100.64.0.2""",2025-03-11,b7rgecm91q5gwpo,False,2785118609-exa-1898957330-mple,1742918938773,https://uiuc.sona-systems.com/webstudy_credit.aspxexperiment_id=&credit_token=&survey_code=,"{'assignmentId': '', 'hitId': '', 'workerId': '', 'turkSubmitTo': '', 'previewMode': False, 'outsideTurk': True, 'platform': 'turk'}",[],,,,,,attritionForm,#attritionForm,0.0,,,,,,,,,,,,,
54126.09999990463,,,1,instructions,3,126945,judging_faces,,,,,False,True,turk,2025-03-25T16:08:58Z,gad,2025-03-25T16:22:00Z,779714,"""100.64.0.2""",2025-03-11,b7rgecm91q5gwpo,False,2785118609-exa-1898957330-mple,1742918938773,https://uiuc.sona-systems.com/webstudy_credit.aspxexperiment_id=&credit_token=&survey_code=,"{'assignmentId': '', 'hitId': '', 'workerId': '', 'turkSubmitTo': '', 'previewMode': False, 'outsideTurk': True, 'platform': 'turk'}",[],,,,,,,,,"[{'page_index': 0, 'viewing_time': 14274.700000047684}, {'page_index': 1, 'viewing_time': 8386}, {'page_index': 2, 'viewing_time': 18380.89999985695}, {'page_index': 3, 'viewing_time': 4283.400000095367}, {'page_index': 4, 'viewing_time': 3286.2999999523163}, {'page_index': 5, 'viewing_time': 5513.900000095367}]",,,,,,,,,,,,
3694.2000000476837,,main,1,single-stim-rev-cor-trial,4,130745,judging_faces,,,,,False,True,turk,2025-03-25T16:08:58Z,gad,2025-03-25T16:22:00Z,779714,"""100.64.0.2""",2025-03-11,b7rgecm91q5gwpo,False,2785118609-exa-1898957330-mple,1742918938773,https://uiuc.sona-systems.com/webstudy_credit.aspxexperiment_id=&credit_token=&survey_code=,"{'assignmentId': '', 'hitId': '', 'workerId': '', 'turkSubmitTo': '', 'previewMode': False, 'outsideTurk': True, 'platform': 'turk'}",[],,,,,,,,,,src/images/main/266.jpg,74.0,j,no GAD,266.0,False,False,1.0,False,,,
2178.300000190735,,main,1,single-stim-rev-cor-trial,5,132925,judging_faces,,,,,False,True,turk,2025-03-25T16:08:58Z,gad,2025-03-25T16:22:00Z,779714,"""100.64.0.2""",2025-03-11,b7rgecm91q5gwpo,False,2785118609-exa-1898957330-mple,1742918938773,https://uiuc.sona-systems.com/webstudy_credit.aspxexperiment_id=&credit_token=&survey_code=,"{'assignmentId': '', 'hitId': '', 'workerId': '', 'turkSubmitTo': '', 'previewMode': False, 'outsideTurk': True, 'platform': 'turk'}",[],,,,,,,,,,src/images/main/7.jpg,70.0,f,GAD,7.0,False,True,1.0,False,,,
1696.3000001907349,,main,1,single-stim-rev-cor-trial,6,134623,judging_faces,,,,,False,True,turk,2025-03-25T16:08:58Z,gad,2025-03-25T16:22:00Z,779714,"""100.64.0.2""",2025-03-11,b7rgecm91q5gwpo,False,2785118609-exa-1898957330-mple,1742918938773,https://uiuc.sona-systems.com/webstudy_credit.aspxexperiment_id=&credit_token=&survey_code=,"{'assignmentId': '', 'hitId': '', 'workerId': '', 'turkSubmitTo': '', 'previewMode': False, 'outsideTurk': True, 'platform': 'turk'}",[],,,,,,,,,,src/images/main/286.jpg,74.0,j,no GAD,286.0,False,False,1.0,False,,,
2359.7000000476837,,main,1,single-stim-rev-cor-trial,7,136985,judging_faces,,,,,False,True,turk,2025-03-25T16:08:58Z,gad,2025-03-25T16:22:00Z,779714,"""100.64.0.2""",2025-03-11,b7rgecm91q5gwpo,False,2785118609-exa-1898957330-mple,1742918938773,https://uiuc.sona-systems.com/webstudy_credit.aspxexperiment_id=&credit_token=&survey_code=,"{'assignmentId': '', 'hitId': '', 'workerId': '', 'turkSubmitTo': '', 'previewMode': False, 'outsideTurk': True, 'platform': 'turk'}",[],,,,,,,,,,src/images/main/55.jpg,74.0,j,no GAD,55.0,False,False,1.0,False,,,
1263.7000000476837,,main,1,single-stim-rev-cor-trial,8,138250,judging_faces,,,,,False,True,turk,2025-03-25T16:08:58Z,gad,2025-03-25T16:22:00Z,779714,"""100.64.0.2""",2025-03-11,b7rgecm91q5gwpo,False,2785118609-exa-1898957330-mple,1742918938773,https://uiuc.sona-systems.com/webstudy_credit.aspxexperiment_id=&credit_token=&survey_code=,"{'assignmentId': '', 'hitId': '', 'workerId': '', 'turkSubmitTo': '', 'previewMode': False, 'outsideTurk': True, 'platform': 'turk'}",[],,,,,,,,,,src/images/main/116.jpg,74.0,j,no GAD,116.0,False,False,1.0,False,,,
1623.7000000476837,,main,1,single-stim-rev-cor-trial,9,139876,judging_faces,,,,,False,True,turk,2025-03-25T16:08:58Z,gad,2025-03-25T16:22:00Z,779714,"""100.64.0.2""",2025-03-11,b7rgecm91q5gwpo,False,2785118609-exa-1898957330-mple,1742918938773,https://uiuc.sona-systems.com/webstudy_credit.aspxexperiment_id=&credit_token=&survey_code=,"{'assignmentId': '', 'hitId': '', 'workerId': '', 'turkSubmitTo': '', 'previewMode': False, 'outsideTurk': True, 'platform': 'turk'}",[],,,,,,,,,,src/images/main/295.jpg,74.0,j,no GAD,295.0,False,False,1.0,False,,,
1682.3999998569489,,main,1,single-stim-rev-cor-trial,10,141560,judging_faces,,,,,False,True,turk,2025-03-25T16:08:58Z,gad,2025-03-25T16:22:00Z,779714,"""100.64.0.2""",2025-03-11,b7rgecm91q5gwpo,False,2785118609-exa-1898957330-mple,1742918938773,https://uiuc.sona-systems.com/webstudy_credit.aspxexperiment_id=&credit_token=&survey_code=,"{'assignmentId': '', 'hitId': '', 'workerId': '', 'turkSubmitTo': '', 'previewMode': False, 'outsideTurk': True, 'platform': 'turk'}",[],,,,,,,,,,src/images/main/112.jpg,74.0,j,no GAD,112.0,False,False,1.0,False,,,
3148.5,,main,1,single-stim-rev-cor-trial,11,144710,judging_faces,,,,,False,True,turk,2025-03-25T16:08:58Z,gad,2025-03-25T16:22:00Z,779714,"""100.64.0.2""",2025-03-11,b7rgecm91q5gwpo,False,2785118609-exa-1898957330-mple,1742918938773,https://uiuc.sona-systems.com/webstudy_credit.aspxexperiment_id=&credit_token=&survey_code=,"{'assignmentId': '', 'hitId': '', 'workerId': '', 'turkSubmitTo': '', 'previewMode': False, 'outsideTurk': True, 'platform': 'turk'}",[],,,,,,,,,,src/images/main/135.jpg,70.0,f,GAD,135.0,False,True,1.0,False,,,
1456.2000000476837,,main,1,single-stim-rev-cor-trial,12,146168,judging_faces,,,,,False,True,turk,2025-03-25T16:08:58Z,gad,2025-03-25T16:22:00Z,779714,"""100.64.0.2""",2025-03-11,b7rgecm91q5gwpo,False,2785118609-exa-1898957330-mple,1742918938773,https://uiuc.sona-systems.com/webstudy_credit.aspxexperiment_id=&credit_token=&survey_code=,"{'assignmentId': '', 'hitId': '', 'workerId': '', 'turkSubmitTo': '', 'previewMode': False, 'outsideTurk': True, 'platform': 'turk'}",[],,,,,,,,,,src/images/main/154.jpg,74.0,j,no GAD,154.0,False,False,1.0,False,,,
1185.2000000476837,,main,1,single-stim-rev-cor-trial,13,147355,judging_faces,,,,,False,True,turk,2025-03-25T16:08:58Z,gad,2025-03-25T16:22:00Z,779714,"""100.64.0.2""",2025-03-11,b7rgecm91q5gwpo,False,2785118609-exa-1898957330-mple,1742918938773,https://uiuc.sona-systems.com/webstudy_credit.aspxexperiment_id=&credit_token=&survey_code=,"{'assignmentId': '', 'hitId': '', 'workerId': '', 'turkSubmitTo': '', 'previewMode': False, 'outsideTurk': True, 'platform': 'turk'}",[],,,,,,,,,,src/images/main/28.jpg,74.0,j,no GAD,28.0,False,False,1.0,False,,,
2735.7000000476837,,main,1,single-stim-rev-cor-trial,14,150092,judging_faces,,,,,False,True,turk,2025-03-25T16:08:58Z,gad,2025-03-25T16:22:00Z,779714,"""100.64.0.2""",2025-03-11,b7rgecm91q5gwpo,False,2785118609-exa-1898957330-mple,1742918938773,https://uiuc.sona-systems.com/webstudy_credit.aspxexperiment_id=&credit_token=&survey_code=,"{'assignmentId': '', 'hitId': '', 'workerId': '', 'turkSubmitTo': '', 'previewMode': False, 'outsideTurk': True, 'platform': 'turk'}",[],,,,,,,,,,src/images/main/100.jpg,74.0,j,no GAD,100.0,False,False,1.0,False,,,
6232.100000143051,,main,1,single-stim-rev-cor-trial,15,156326,judging_faces,,,,,False,True,turk,2025-03-25T16:08:58Z,gad,2025-03-25T16:22:00Z,779714,"""100.64.0.2""",2025-03-11,b7rgecm91q5gwpo,False,2785118609-exa-1898957330-mple,1742918938773,https://uiuc.sona-systems.com/webstudy_credit.aspxexperiment_id=&credit_token=&survey_code=,"{'assignmentId': '', 'hitId': '', 'workerId': '', 'turkSubmitTo': '', 'previewMode': False, 'outsideTurk': True, 'platform': 'turk'}",[],,,,,,,,,,src/images/main/98.jpg,70.0,f,GAD,98.0,False,True,1.0,False,,,
992.2000000476837,,main,1,single-stim-rev-cor-trial,16,157320,judging_faces,,,,,False,True,turk,2025-03-25T16:08:58Z,gad,2025-03-25T16:22:00Z,779714,"""100.64.0.2""",2025-03-11,b7rgecm91q5gwpo,False,2785118609-exa-1898957330-mple,1742918938773,https://uiuc.sona-systems.com/webstudy_credit.aspxexperiment_id=&credit_token=&survey_code=,"{'assignmentId': '', 'hitId': '', 'workerId': '', 'turkSubmitTo': '', 'previewMode': False, 'outsideTurk': True, 'platform': 'turk'}",[],,,,,,,,,,src/images/main/114.jpg,70.0,f,GAD,114.0,False,True,1.0,False,,,
2864.4000000953674,,main,1,single-stim-rev-cor-trial,17,160186,judging_faces,,,,,False,True,turk,2025-03-25T16:08:58Z,gad,2025-03-25T16:22:00Z,779714,"""100.64.0.2""",2025-03-11,b7rgecm91q5gwpo,False,2785118609-exa-1898957330-mple,1742918938773,https://uiuc.sona-systems.com/webstudy_credit.aspxexperiment_id=&credit_token=&survey_code=,"{'assignmentId': '', 'hitId': '', 'workerId': '', 'turkSubmitTo': '', 'previewMode': False, 'outsideTurk': True, 'platform': 'turk'}",[],,,,,,,,,,src/images/main/40.jpg,74.0,j,no GAD,40.0,False,False,1.0,False,,,
1851.7000000476837,,main,1,single-stim-rev-cor-trial,18,162039,judging_faces,,,,,False,True,turk,2025-03-25T16:08:58Z,gad,2025-03-25T16:22:00Z,779714,"""100.64.0.2""",2025-03-11,b7rgecm91q5gwpo,False,2785118609-exa-1898957330-mple,1742918938773,https://uiuc.sona-systems.com/webstudy_credit.aspxexperiment_id=&credit_token=&survey_code=,"{'assignmentId': '', 'hitId': '', 'workerId': '', 'turkSubmitTo': '', 'previewMode': False, 'outsideTurk': True, 'platform': 'turk'}",[],,,,,,,,,,src/images/main/133.jpg,70.0,f,GAD,133.0,False,True,1.0,False,,,
2675.2999999523163,,main,1,single-stim-rev-cor-trial,19,164716,judging_faces,,,,,False,True,turk,2025-03-25T16:08:58Z,gad,2025-03-25T16:22:00Z,779714,"""100.64.0.2""",2025-03-11,b7rgecm91q5gwpo,False,2785118609-exa-1898957330-mple,1742918938773,https://uiuc.sona-systems.com/webstudy_credit.aspxexperiment_id=&credit_token=&survey_code=,"{'assignmentId': '', 'hitId': '', 'workerId': '', 'turkSubmitTo': '', 'previewMode': False, 'outsideTurk': True, 'platform': 'turk'}",[],,,,,,,,,,src/images/main/91.jpg,74.0,j,no GAD,91.0,False,False,1.0,False,,,
2373.0,,main,1,single-stim-rev-cor-trial,20,167091,judging_faces,,,,,False,True,turk,2025-03-25T16:08:58Z,gad,2025-03-25T16:22:00Z,779714,"""100.64.0.2""",2025-03-11,b7rgecm91q5gwpo,False,2785118609-exa-1898957330-mple,1742918938773,https://uiuc.sona-systems.com/webstudy_credit.aspxexperiment_id=&credit_token=&survey_code=,"{'assignmentId': '', 'hitId': '', 'workerId': '', 'turkSubmitTo': '', 'previewMode': False, 'outsideTurk': True, 'platform': 'turk'}",[],,,,,,,,,,src/images/main/74.jpg,74.0,j,no GAD,74.0,False,False,1.0,False,,,
3359.2000000476837,,main,1,single-stim-rev-cor-trial,21,170452,judging_faces,,,,,False,True,turk,2025-03-25T16:08:58Z,gad,2025-03-25T16:22:00Z,779714,"""100.64.0.2""",2025-03-11,b7rgecm91q5gwpo,False,2785118609-exa-1898957330-mple,1742918938773,https://uiuc.sona-systems.com/webstudy_credit.aspxexperiment_id=&credit_token=&survey_code=,"{'assignmentId': '', 'hitId': '', 'workerId': '', 'turkSubmitTo': '', 'previewMode': False, 'outsideTurk': True, 'platform': 'turk'}",[],,,,,,,,,,src/images/main/229.jpg,74.0,j,no GAD,229.0,False,False,1.0,False,,,
866.3999998569489,,main,1,single-stim-rev-cor-trial,22,171320,judging_faces,,,,,False,True,turk,2025-03-25T16:08:58Z,gad,2025-03-25T16:22:00Z,779714,"""100.64.0.2""",2025-03-11,b7rgecm91q5gwpo,False,2785118609-exa-1898957330-mple,1742918938773,https://uiuc.sona-systems.com/webstudy_credit.aspxexperiment_id=&credit_token=&survey_code=,"{'assignmentId': '', 'hitId': '', 'workerId': '', 'turkSubmitTo': '', 'previewMode': False, 'outsideTurk': True, 'platform': 'turk'}",[],,,,,,,,,,src/images/main/211.jpg,70.0,f,GAD,211.0,False,True,1.0,False,,,
868.6999998092651,,main,1,single-stim-rev-cor-trial,23,172191,judging_faces,,,,,False,True,turk,2025-03-25T16:08:58Z,gad,2025-03-25T16:22:00Z,779714,"""100.64.0.2""",2025-03-11,b7rgecm91q5gwpo,False,2785118609-exa-1898957330-mple,1742918938773,https://uiuc.sona-systems.com/webstudy_credit.aspxexperiment_id=&credit_token=&survey_code=,"{'assignmentId': '', 'hitId': '', 'workerId': '', 'turkSubmitTo': '', 'previewMode': False, 'outsideTurk': True, 'platform': 'turk'}",[],,,,,,,,,,src/images/main/51.jpg,70.0,f,GAD,51.0,False,True,1.0,False,,,
1244.8999998569489,,main,1,single-stim-rev-cor-trial,24,173437,judging_faces,,,,,False,True,turk,2025-03-25T16:08:58Z,gad,2025-03-25T16:22:00Z,779714,"""100.64.0.2""",2025-03-11,b7rgecm91q5gwpo,False,2785118609-exa-1898957330-mple,1742918938773,https://uiuc.sona-systems.com/webstudy_credit.aspxexperiment_id=&credit_token=&survey_code=,"{'assignmentId': '', 'hitId': '', 'workerId': '', 'turkSubmitTo': '', 'previewMode': False, 'outsideTurk': True, 'platform': 'turk'}",[],,,,,,,,,,src/images/main/70.jpg,70.0,f,GAD,70.0,False,True,1.0,False,,,
1930.6000001430511,,main,1,single-stim-rev-cor-trial,25,175369,judging_faces,,,,,False,True,turk,2025-03-25T16:08:58Z,gad,2025-03-25T16:22:00Z,779714,"""100.64.0.2""",2025-03-11,b7rgecm91q5gwpo,False,2785118609-exa-1898957330-mple,1742918938773,https://uiuc.sona-systems.com/webstudy_credit.aspxexperiment_id=&credit_token=&survey_code=,"{'assignmentId': '', 'hitId': '', 'workerId': '', 'turkSubmitTo': '', 'previewMode': False, 'outsideTurk': True, 'platform': 'turk'}",[],,,,,,,,,,src/images/main/165.jpg,74.0,j,no GAD,165.0,False,False,1.0,False,,,
1689.5999999046326,,main,1,single-stim-rev-cor-trial,26,177061,judging_faces,,,,,False,True,turk,2025-03-25T16:08:58Z,gad,2025-03-25T16:22:00Z,779714,"""100.64.0.2""",2025-03-11,b7rgecm91q5gwpo,False,2785118609-exa-1898957330-mple,1742918938773,https://uiuc.sona-systems.com/webstudy_credit.aspxexperiment_id=&credit_token=&survey_code=,"{'assignmentId': '', 'hitId': '', 'workerId': '', 'turkSubmitTo': '', 'previewMode': False, 'outsideTurk': True, 'platform': 'turk'}",[],,,,,,,,,,src/images/main/259.jpg,70.0,f,GAD,259.0,False,True,1.0,False,,,
1094.0999999046326,,main,1,single-stim-rev-cor-trial,27,178156,judging_faces,,,,,False,True,turk,2025-03-25T16:08:58Z,gad,2025-03-25T16:22:00Z,779714,"""100.64.0.2""",2025-03-11,b7rgecm91q5gwpo,False,2785118609-exa-1898957330-mple,1742918938773,https://uiuc.sona-systems.com/webstudy_credit.aspxexperiment_id=&credit_token=&survey_code=,"{'assignmentId': '', 'hitId': '', 'workerId': '', 'turkSubmitTo': '', 'previewMode': False, 'outsideTurk': True, 'platform': 'turk'}",[],,,,,,,,,,src/images/main/120.jpg,70.0,f,GAD,120.0,False,True,1.0,False,,,
3412.4000000953674,,main,1,single-stim-rev-cor-trial,28,181570,judging_faces,,,,,False,True,turk,2025-03-25T16:08:58Z,gad,2025-03-25T16:22:00Z,779714,"""100.64.0.2""",2025-03-11,b7rgecm91q5gwpo,False,2785118609-exa-1898957330-mple,1742918938773,https://uiuc.sona-systems.com/webstudy_credit.aspxexperiment_id=&credit_token=&survey_code=,"{'assignmentId': '', 'hitId': '', 'workerId': '', 'turkSubmitTo': '', 'previewMode': False, 'outsideTurk': True, 'platform': 'turk'}",[],,,,,,,,,,src/images/main/168.jpg,74.0,j,no GAD,168.0,False,False,1.0,False,,,
1328.9000000953674,,main,1,single-stim-rev-cor-trial,29,182900,judging_faces,,,,,False,True,turk,2025-03-25T16:08:58Z,gad,2025-03-25T16:22:00Z,779714,"""100.64.0.2""",2025-03-11,b7rgecm91q5gwpo,False,2785118609-exa-1898957330-mple,1742918938773,https://uiuc.sona-systems.com/webstudy_credit.aspxexperiment_id=&credit_token=&survey_code=,"{'assignmentId': '', 'hitId': '', 'workerId': '', 'turkSubmitTo': '', 'previewMode': False, 'outsideTurk': True, 'platform': 'turk'}",[],,,,,,,,,,src/images/main/103.jpg,74.0,j,no GAD,103.0,False,False,1.0,False,,,
1084.2000000476837,,main,1,single-stim-rev-cor-trial,30,183986,judging_faces,,,,,False,True,turk,2025-03-25T16:08:58Z,gad,2025-03-25T16:22:00Z,779714,"""100.64.0.2""",2025-03-11,b7rgecm91q5gwpo,False,2785118609-exa-1898957330-mple,1742918938773,https://uiuc.sona-systems.com/webstudy_credit.aspxexperiment_id=&credit_token=&survey_code=,"{'assignmentId': '', 'hitId': '', 'workerId': '', 'turkSubmitTo': '', 'previewMode': False, 'outsideTurk': True, 'platform': 'turk'}",[],,,,,,,,,,src/images/main/240.jpg,74.0,j,no GAD,240.0,False,False,1.0,False,,,
1952.7999999523163,,main,1,single-stim-rev-cor-trial,31,185940,judging_faces,,,,,False,True,turk,2025-03-25T16:08:58Z,gad,2025-03-25T16:22:00Z,779714,"""100.64.0.2""",2025-03-11,b7rgecm91q5gwpo,False,2785118609-exa-1898957330-mple,1742918938773,https://uiuc.sona-systems.com/webstudy_credit.aspxexperiment_id=&credit_token=&survey_code=,"{'assignmentId': '', 'hitId': '', 'workerId': '', 'turkSubmitTo': '', 'previewMode': False, 'outsideTurk': True, 'platform': 'turk'}",[],,,,,,,,,,src/images/main/273.jpg,74.0,j,no GAD,273.0,False,False,1.0,False,,,
830.7999999523163,,main,1,single-stim-rev-cor-trial,32,186773,judging_faces,,,,,False,True,turk,2025-03-25T16:08:58Z,gad,2025-03-25T16:22:00Z,779714,"""100.64.0.2""",2025-03-11,b7rgecm91q5gwpo,False,2785118609-exa-1898957330-mple,1742918938773,https://uiuc.sona-systems.com/webstudy_credit.aspxexperiment_id=&credit_token=&survey_code=,"{'assignmentId': '', 'hitId': '', 'workerId': '', 'turkSubmitTo': '', 'previewMode': False, 'outsideTurk': True, 'platform': 'turk'}",[],,,,,,,,,,src/images/main/82.jpg,74.0,j,no GAD,82.0,False,False,1.0,False,,,
1370.2999999523163,,main,1,single-stim-rev-cor-trial,33,188145,judging_faces,,,,,False,True,turk,2025-03-25T16:08:58Z,gad,2025-03-25T16:22:00Z,779714,"""100.64.0.2""",2025-03-11,b7rgecm91q5gwpo,False,2785118609-exa-1898957330-mple,1742918938773,https://uiuc.sona-systems.com/webstudy_credit.aspxexperiment_id=&credit_token=&survey_code=,"{'assignmentId': '', 'hitId': '', 'workerId': '', 'turkSubmitTo': '', 'previewMode': False, 'outsideTurk': True, 'platform': 'turk'}",[],,,,,,,,,,src/images/main/204.jpg,74.0,j,no GAD,204.0,False,False,1.0,False,,,
1272.9000000953674,,main,1,single-stim-rev-cor-trial,34,189420,judging_faces,,,,,False,True,turk,2025-03-25T16:08:58Z,gad,2025-03-25T16:22:00Z,779714,"""100.64.0.2""",2025-03-11,b7rgecm91q5gwpo,False,2785118609-exa-1898957330-mple,1742918938773,https://uiuc.sona-systems.com/webstudy_credit.aspxexperiment_id=&credit_token=&survey_code=,"{'assignmentId': '', 'hitId': '', 'workerId': '', 'turkSubmitTo': '', 'previewMode': False, 'outsideTurk': True, 'platform': 'turk'}",[],,,,,,,,,,src/images/main/130.jpg,74.0,j,no GAD,130.0,False,False,1.0,False,,,
1554.1999998092651,,main,1,single-stim-rev-cor-trial,35,190975,judging_faces,,,,,False,True,turk,2025-03-25T16:08:58Z,gad,2025-03-25T16:22:00Z,779714,"""100.64.0.2""",2025-03-11,b7rgecm91q5gwpo,False,2785118609-exa-1898957330-mple,1742918938773,https://uiuc.sona-systems.com/webstudy_credit.aspxexperiment_id=&credit_token=&survey_code=,"{'assignmentId': '', 'hitId': '', 'workerId': '', 'turkSubmitTo': '', 'previewMode': False, 'outsideTurk': True, 'platform': 'turk'}",[],,,,,,,,,,src/images/main/43.jpg,74.0,j,no GAD,43.0,False,False,1.0,False,,,
2611.699999809265,,main,1,single-stim-rev-cor-trial,36,193588,judging_faces,,,,,False,True,turk,2025-03-25T16:08:58Z,gad,2025-03-25T16:22:00Z,779714,"""100.64.0.2""",2025-03-11,b7rgecm91q5gwpo,False,2785118609-exa-1898957330-mple,1742918938773,https://uiuc.sona-systems.com/webstudy_credit.aspxexperiment_id=&credit_token=&survey_code=,"{'assignmentId': '', 'hitId': '', 'workerId': '', 'turkSubmitTo': '', 'previewMode': False, 'outsideTurk': True, 'platform': 'turk'}",[],,,,,,,,,,src/images/main/200.jpg,74.0,j,no GAD,200.0,False,False,1.0,False,,,
1591.5,,main,1,single-stim-rev-cor-trial,37,195181,judging_faces,,,,,False,True,turk,2025-03-25T16:08:58Z,gad,2025-03-25T16:22:00Z,779714,"""100.64.0.2""",2025-03-11,b7rgecm91q5gwpo,False,2785118609-exa-1898957330-mple,1742918938773,https://uiuc.sona-systems.com/webstudy_credit.aspxexperiment_id=&credit_token=&survey_code=,"{'assignmentId': '', 'hitId': '', 'workerId': '', 'turkSubmitTo': '', 'previewMode': False, 'outsideTurk': True, 'platform': 'turk'}",[],,,,,,,,,,src/images/main/9.jpg,74.0,j,no GAD,9.0,False,False,1.0,False,,,
1321.3999998569489,,main,1,single-stim-rev-cor-trial,38,196504,judging_faces,,,,,False,True,turk,2025-03-25T16:08:58Z,gad,2025-03-25T16:22:00Z,779714,"""100.64.0.2""",2025-03-11,b7rgecm91q5gwpo,False,2785118609-exa-1898957330-mple,1742918938773,https://uiuc.sona-systems.com/webstudy_credit.aspxexperiment_id=&credit_token=&survey_code=,"{'assignmentId': '', 'hitId': '', 'workerId': '', 'turkSubmitTo': '', 'previewMode': False, 'outsideTurk': True, 'platform': 'turk'}",[],,,,,,,,,,src/images/main/217.jpg,74.0,j,no GAD,217.0,False,False,1.0,False,,,
799.4000000953674,,main,1,single-stim-rev-cor-trial,39,197306,judging_faces,,,,,False,True,turk,2025-03-25T16:08:58Z,gad,2025-03-25T16:22:00Z,779714,"""100.64.0.2""",2025-03-11,b7rgecm91q5gwpo,False,2785118609-exa-1898957330-mple,1742918938773,https://uiuc.sona-systems.com/webstudy_credit.aspxexperiment_id=&credit_token=&survey_code=,"{'assignmentId': '', 'hitId': '', 'workerId': '', 'turkSubmitTo': '', 'previewMode': False, 'outsideTurk': True, 'platform': 'turk'}",[],,,,,,,,,,src/images/main/27.jpg,70.0,f,GAD,27.0,False,True,1.0,False,,,
840.5,,main,1,single-stim-rev-cor-trial,40,198148,judging_faces,,,,,False,True,turk,2025-03-25T16:08:58Z,gad,2025-03-25T16:22:00Z,779714,"""100.64.0.2""",2025-03-11,b7rgecm91q5gwpo,False,2785118609-exa-1898957330-mple,1742918938773,https://uiuc.sona-systems.com/webstudy_credit.aspxexperiment_id=&credit_token=&survey_code=,"{'assignmentId': '', 'hitId': '', 'workerId': '', 'turkSubmitTo': '', 'previewMode': False, 'outsideTurk': True, 'platform': 'turk'}",[],,,,,,,,,,src/images/main/4.jpg,70.0,f,GAD,4.0,False,True,1.0,False,,,
973.6000001430511,,main,1,single-stim-rev-cor-trial,41,199123,judging_faces,,,,,False,True,turk,2025-03-25T16:08:58Z,gad,2025-03-25T16:22:00Z,779714,"""100.64.0.2""",2025-03-11,b7rgecm91q5gwpo,False,2785118609-exa-1898957330-mple,1742918938773,https://uiuc.sona-systems.com/webstudy_credit.aspxexperiment_id=&credit_token=&survey_code=,"{'assignmentId': '', 'hitId': '', 'workerId': '', 'turkSubmitTo': '', 'previewMode': False, 'outsideTurk': True, 'platform': 'turk'}",[],,,,,,,,,,src/images/main/169.jpg,70.0,f,GAD,169.0,False,True,1.0,False,,,
1025.2000000476837,,main,1,single-stim-rev-cor-trial,42,200150,judging_faces,,,,,False,True,turk,2025-03-25T16:08:58Z,gad,2025-03-25T16:22:00Z,779714,"""100.64.0.2""",2025-03-11,b7rgecm91q5gwpo,False,2785118609-exa-1898957330-mple,1742918938773,https://uiuc.sona-systems.com/webstudy_credit.aspxexperiment_id=&credit_token=&survey_code=,"{'assignmentId': '', 'hitId': '', 'workerId': '', 'turkSubmitTo': '', 'previewMode': False, 'outsideTurk': True, 'platform': 'turk'}",[],,,,,,,,,,src/images/main/176.jpg,74.0,j,no GAD,176.0,False,False,1.0,False,,,
1059.5999999046326,,main,1,single-stim-rev-cor-trial,43,201211,judging_faces,,,,,False,True,turk,2025-03-25T16:08:58Z,gad,2025-03-25T16:22:00Z,779714,"""100.64.0.2""",2025-03-11,b7rgecm91q5gwpo,False,2785118609-exa-1898957330-mple,1742918938773,https://uiuc.sona-systems.com/webstudy_credit.aspxexperiment_id=&credit_token=&survey_code=,"{'assignmentId': '', 'hitId': '', 'workerId': '', 'turkSubmitTo': '', 'previewMode': False, 'outsideTurk': True, 'platform': 'turk'}",[],,,,,,,,,,src/images/main/197.jpg,70.0,f,GAD,197.0,False,True,1.0,False,,,
863.2999999523163,,main,1,single-stim-rev-cor-trial,44,202076,judging_faces,,,,,False,True,turk,2025-03-25T16:08:58Z,gad,2025-03-25T16:22:00Z,779714,"""100.64.0.2""",2025-03-11,b7rgecm91q5gwpo,False,2785118609-exa-1898957330-mple,1742918938773,https://uiuc.sona-systems.com/webstudy_credit.aspxexperiment_id=&credit_token=&survey_code=,"{'assignmentId': '', 'hitId': '', 'workerId': '', 'turkSubmitTo': '', 'previewMode': False, 'outsideTurk': True, 'platform': 'turk'}",[],,,,,,,,,,src/images/main/79.jpg,74.0,j,no GAD,79.0,False,False,1.0,False,,,
836.0999999046326,,main,1,single-stim-rev-cor-trial,45,202914,judging_faces,,,,,False,True,turk,2025-03-25T16:08:58Z,gad,2025-03-25T16:22:00Z,779714,"""100.64.0.2""",2025-03-11,b7rgecm91q5gwpo,False,2785118609-exa-1898957330-mple,1742918938773,https://uiuc.sona-systems.com/webstudy_credit.aspxexperiment_id=&credit_token=&survey_code=,"{'assignmentId': '', 'hitId': '', 'workerId': '', 'turkSubmitTo': '', 'previewMode': False, 'outsideTurk': True, 'platform': 'turk'}",[],,,,,,,,,,src/images/main/297.jpg,74.0,j,no GAD,297.0,False,False,1.0,False,,,
1346.5,,main,1,single-stim-rev-cor-trial,46,204262,judging_faces,,,,,False,True,turk,2025-03-25T16:08:58Z,gad,2025-03-25T16:22:00Z,779714,"""100.64.0.2""",2025-03-11,b7rgecm91q5gwpo,False,2785118609-exa-1898957330-mple,1742918938773,https://uiuc.sona-systems.com/webstudy_credit.aspxexperiment_id=&credit_token=&survey_code=,"{'assignmentId': '', 'hitId': '', 'workerId': '', 'turkSubmitTo': '', 'previewMode': False, 'outsideTurk': True, 'platform': 'turk'}",[],,,,,,,,,,src/images/main/108.jpg,74.0,j,no GAD,108.0,False,False,1.0,False,,,
1878.7999999523163,,main,1,single-stim-rev-cor-trial,47,206142,judging_faces,,,,,False,True,turk,2025-03-25T16:08:58Z,gad,2025-03-25T16:22:00Z,779714,"""100.64.0.2""",2025-03-11,b7rgecm91q5gwpo,False,2785118609-exa-1898957330-mple,1742918938773,https://uiuc.sona-systems.com/webstudy_credit.aspxexperiment_id=&credit_token=&survey_code=,"{'assignmentId': '', 'hitId': '', 'workerId': '', 'turkSubmitTo': '', 'previewMode': False, 'outsideTurk': True, 'platform': 'turk'}",[],,,,,,,,,,src/images/main/196.jpg,70.0,f,GAD,196.0,False,True,1.0,False,,,
2993.7999999523163,,main,1,single-stim-rev-cor-trial,48,209138,judging_faces,,,,,False,True,turk,2025-03-25T16:08:58Z,gad,2025-03-25T16:22:00Z,779714,"""100.64.0.2""",2025-03-11,b7rgecm91q5gwpo,False,2785118609-exa-1898957330-mple,1742918938773,https://uiuc.sona-systems.com/webstudy_credit.aspxexperiment_id=&credit_token=&survey_code=,"{'assignmentId': '', 'hitId': '', 'workerId': '', 'turkSubmitTo': '', 'previewMode': False, 'outsideTurk': True, 'platform': 'turk'}",[],,,,,,,,,,src/images/main/287.jpg,74.0,j,no GAD,287.0,False,False,1.0,False,,,
1627.2000000476837,,main,1,single-stim-rev-cor-trial,49,210767,judging_faces,,,,,False,True,turk,2025-03-25T16:08:58Z,gad,2025-03-25T16:22:00Z,779714,"""100.64.0.2""",2025-03-11,b7rgecm91q5gwpo,False,2785118609-exa-1898957330-mple,1742918938773,https://uiuc.sona-systems.com/webstudy_credit.aspxexperiment_id=&credit_token=&survey_code=,"{'assignmentId': '', 'hitId': '', 'workerId': '', 'turkSubmitTo': '', 'previewMode': False, 'outsideTurk': True, 'platform': 'turk'}",[],,,,,,,,,,src/images/main/189.jpg,74.0,j,no GAD,189.0,False,False,1.0,False,,,
835.5999999046326,,main,1,single-stim-rev-cor-trial,50,211604,judging_faces,,,,,False,True,turk,2025-03-25T16:08:58Z,gad,2025-03-25T16:22:00Z,779714,"""100.64.0.2""",2025-03-11,b7rgecm91q5gwpo,False,2785118609-exa-1898957330-mple,1742918938773,https://uiuc.sona-systems.com/webstudy_credit.aspxexperiment_id=&credit_token=&survey_code=,"{'assignmentId': '', 'hitId': '', 'workerId': '', 'turkSubmitTo': '', 'previewMode': False, 'outsideTurk': True, 'platform': 'turk'}",[],,,,,,,,,,src/images/main/139.jpg,70.0,f,GAD,139.0,False,True,1.0,False,,,
2052.5999999046326,,main,1,single-stim-rev-cor-trial,51,213659,judging_faces,,,,,False,True,turk,2025-03-25T16:08:58Z,gad,2025-03-25T16:22:00Z,779714,"""100.64.0.2""",2025-03-11,b7rgecm91q5gwpo,False,2785118609-exa-1898957330-mple,1742918938773,https://uiuc.sona-systems.com/webstudy_credit.aspxexperiment_id=&credit_token=&survey_code=,"{'assignmentId': '', 'hitId': '', 'workerId': '', 'turkSubmitTo': '', 'previewMode': False, 'outsideTurk': True, 'platform': 'turk'}",[],,,,,,,,,,src/images/main/115.jpg,70.0,f,GAD,115.0,False,True,1.0,False,,,
551.7999999523163,,main,1,single-stim-rev-cor-trial,52,214212,judging_faces,,,,,False,True,turk,2025-03-25T16:08:58Z,gad,2025-03-25T16:22:00Z,779714,"""100.64.0.2""",2025-03-11,b7rgecm91q5gwpo,False,2785118609-exa-1898957330-mple,1742918938773,https://uiuc.sona-systems.com/webstudy_credit.aspxexperiment_id=&credit_token=&survey_code=,"{'assignmentId': '', 'hitId': '', 'workerId': '', 'turkSubmitTo': '', 'previewMode': False, 'outsideTurk': True, 'platform': 'turk'}",[],,,,,,,,,,src/images/main/123.jpg,70.0,f,GAD,123.0,False,True,1.0,False,,,
932.2999999523163,,main,1,single-stim-rev-cor-trial,53,215146,judging_faces,,,,,False,True,turk,2025-03-25T16:08:58Z,gad,2025-03-25T16:22:00Z,779714,"""100.64.0.2""",2025-03-11,b7rgecm91q5gwpo,False,2785118609-exa-1898957330-mple,1742918938773,https://uiuc.sona-systems.com/webstudy_credit.aspxexperiment_id=&credit_token=&survey_code=,"{'assignmentId': '', 'hitId': '', 'workerId': '', 'turkSubmitTo': '', 'previewMode': False, 'outsideTurk': True, 'platform': 'turk'}",[],,,,,,,,,,src/images/main/230.jpg,70.0,f,GAD,230.0,False,True,1.0,False,,,
1568.4000000953674,,main,1,single-stim-rev-cor-trial,54,216716,judging_faces,,,,,False,True,turk,2025-03-25T16:08:58Z,gad,2025-03-25T16:22:00Z,779714,"""100.64.0.2""",2025-03-11,b7rgecm91q5gwpo,False,2785118609-exa-1898957330-mple,1742918938773,https://uiuc.sona-systems.com/webstudy_credit.aspxexperiment_id=&credit_token=&survey_code=,"{'assignmentId': '', 'hitId': '', 'workerId': '', 'turkSubmitTo': '', 'previewMode': False, 'outsideTurk': True, 'platform': 'turk'}",[],,,,,,,,,,src/images/main/270.jpg,74.0,j,no GAD,270.0,False,False,1.0,False,,,
826.2999999523163,,main,1,single-stim-rev-cor-trial,55,217544,judging_faces,,,,,False,True,turk,2025-03-25T16:08:58Z,gad,2025-03-25T16:22:00Z,779714,"""100.64.0.2""",2025-03-11,b7rgecm91q5gwpo,False,2785118609-exa-1898957330-mple,1742918938773,https://uiuc.sona-systems.com/webstudy_credit.aspxexperiment_id=&credit_token=&survey_code=,"{'assignmentId': '', 'hitId': '', 'workerId': '', 'turkSubmitTo': '', 'previewMode': False, 'outsideTurk': True, 'platform': 'turk'}",[],,,,,,,,,,src/images/main/162.jpg,74.0,j,no GAD,162.0,False,False,1.0,False,,,
1265.5,,main,1,single-stim-rev-cor-trial,56,218811,judging_faces,,,,,False,True,turk,2025-03-25T16:08:58Z,gad,2025-03-25T16:22:00Z,779714,"""100.64.0.2""",2025-03-11,b7rgecm91q5gwpo,False,2785118609-exa-1898957330-mple,1742918938773,https://uiuc.sona-systems.com/webstudy_credit.aspxexperiment_id=&credit_token=&survey_code=,"{'assignmentId': '', 'hitId': '', 'workerId': '', 'turkSubmitTo': '', 'previewMode': False, 'outsideTurk': True, 'platform': 'turk'}",[],,,,,,,,,,src/images/main/35.jpg,70.0,f,GAD,35.0,False,True,1.0,False,,,
1825.0,,main,1,single-stim-rev-cor-trial,57,220638,judging_faces,,,,,False,True,turk,2025-03-25T16:08:58Z,gad,2025-03-25T16:22:00Z,779714,"""100.64.0.2""",2025-03-11,b7rgecm91q5gwpo,False,2785118609-exa-1898957330-mple,1742918938773,https://uiuc.sona-systems.com/webstudy_credit.aspxexperiment_id=&credit_token=&survey_code=,"{'assignmentId': '', 'hitId': '', 'workerId': '', 'turkSubmitTo': '', 'previewMode': False, 'outsideTurk': True, 'platform': 'turk'}",[],,,,,,,,,,src/images/main/96.jpg,74.0,j,no GAD,96.0,False,False,1.0,False,,,
1100.1000001430511,,main,1,single-stim-rev-cor-trial,58,221740,judging_faces,,,,,False,True,turk,2025-03-25T16:08:58Z,gad,2025-03-25T16:22:00Z,779714,"""100.64.0.2""",2025-03-11,b7rgecm91q5gwpo,False,2785118609-exa-1898957330-mple,1742918938773,https://uiuc.sona-systems.com/webstudy_credit.aspxexperiment_id=&credit_token=&survey_code=,"{'assignmentId': '', 'hitId': '', 'workerId': '', 'turkSubmitTo': '', 'previewMode': False, 'outsideTurk': True, 'platform': 'turk'}",[],,,,,,,,,,src/images/main/57.jpg,74.0,j,no GAD,57.0,False,False,1.0,False,,,
1080.5,,main,1,single-stim-rev-cor-trial,59,222822,judging_faces,,,,,False,True,turk,2025-03-25T16:08:58Z,gad,2025-03-25T16:22:00Z,779714,"""100.64.0.2""",2025-03-11,b7rgecm91q5gwpo,False,2785118609-exa-1898957330-mple,1742918938773,https://uiuc.sona-systems.com/webstudy_credit.aspxexperiment_id=&credit_token=&survey_code=,"{'assignmentId': '', 'hitId': '', 'workerId': '', 'turkSubmitTo': '', 'previewMode': False, 'outsideTurk': True, 'platform': 'turk'}",[],,,,,,,,,,src/images/main/208.jpg,70.0,f,GAD,208.0,False,True,1.0,False,,,
1066.2999999523163,,main,1,single-stim-rev-cor-trial,60,223890,judging_faces,,,,,False,True,turk,2025-03-25T16:08:58Z,gad,2025-03-25T16:22:00Z,779714,"""100.64.0.2""",2025-03-11,b7rgecm91q5gwpo,False,2785118609-exa-1898957330-mple,1742918938773,https://uiuc.sona-systems.com/webstudy_credit.aspxexperiment_id=&credit_token=&survey_code=,"{'assignmentId': '', 'hitId': '', 'workerId': '', 'turkSubmitTo': '', 'previewMode': False, 'outsideTurk': True, 'platform': 'turk'}",[],,,,,,,,,,src/images/main/29.jpg,74.0,j,no GAD,29.0,False,False,1.0,False,,,
1306.2999999523163,,main,1,single-stim-rev-cor-trial,61,225198,judging_faces,,,,,False,True,turk,2025-03-25T16:08:58Z,gad,2025-03-25T16:22:00Z,779714,"""100.64.0.2""",2025-03-11,b7rgecm91q5gwpo,False,2785118609-exa-1898957330-mple,1742918938773,https://uiuc.sona-systems.com/webstudy_credit.aspxexperiment_id=&credit_token=&survey_code=,"{'assignmentId': '', 'hitId': '', 'workerId': '', 'turkSubmitTo': '', 'previewMode': False, 'outsideTurk': True, 'platform': 'turk'}",[],,,,,,,,,,src/images/main/282.jpg,70.0,f,GAD,282.0,False,True,1.0,False,,,
884.6000001430511,,main,1,single-stim-rev-cor-trial,62,226084,judging_faces,,,,,False,True,turk,2025-03-25T16:08:58Z,gad,2025-03-25T16:22:00Z,779714,"""100.64.0.2""",2025-03-11,b7rgecm91q5gwpo,False,2785118609-exa-1898957330-mple,1742918938773,https://uiuc.sona-systems.com/webstudy_credit.aspxexperiment_id=&credit_token=&survey_code=,"{'assignmentId': '', 'hitId': '', 'workerId': '', 'turkSubmitTo': '', 'previewMode': False, 'outsideTurk': True, 'platform': 'turk'}",[],,,,,,,,,,src/images/main/280.jpg,74.0,j,no GAD,280.0,False,False,1.0,False,,,
1194.5,,main,1,single-stim-rev-cor-trial,63,227280,judging_faces,,,,,False,True,turk,2025-03-25T16:08:58Z,gad,2025-03-25T16:22:00Z,779714,"""100.64.0.2""",2025-03-11,b7rgecm91q5gwpo,False,2785118609-exa-1898957330-mple,1742918938773,https://uiuc.sona-systems.com/webstudy_credit.aspxexperiment_id=&credit_token=&survey_code=,"{'assignmentId': '', 'hitId': '', 'workerId': '', 'turkSubmitTo': '', 'previewMode': False, 'outsideTurk': True, 'platform': 'turk'}",[],,,,,,,,,,src/images/main/47.jpg,70.0,f,GAD,47.0,False,True,1.0,False,,,
1854.6999998092651,,main,1,single-stim-rev-cor-trial,64,229137,judging_faces,,,,,False,True,turk,2025-03-25T16:08:58Z,gad,2025-03-25T16:22:00Z,779714,"""100.64.0.2""",2025-03-11,b7rgecm91q5gwpo,False,2785118609-exa-1898957330-mple,1742918938773,https://uiuc.sona-systems.com/webstudy_credit.aspxexperiment_id=&credit_token=&survey_code=,"{'assignmentId': '', 'hitId': '', 'workerId': '', 'turkSubmitTo': '', 'previewMode': False, 'outsideTurk': True, 'platform': 'turk'}",[],,,,,,,,,,src/images/main/242.jpg,74.0,j,no GAD,242.0,False,False,1.0,False,,,
3578.0999999046326,,main,1,single-stim-rev-cor-trial,65,232717,judging_faces,,,,,False,True,turk,2025-03-25T16:08:58Z,gad,2025-03-25T16:22:00Z,779714,"""100.64.0.2""",2025-03-11,b7rgecm91q5gwpo,False,2785118609-exa-1898957330-mple,1742918938773,https://uiuc.sona-systems.com/webstudy_credit.aspxexperiment_id=&credit_token=&survey_code=,"{'assignmentId': '', 'hitId': '', 'workerId': '', 'turkSubmitTo': '', 'previewMode': False, 'outsideTurk': True, 'platform': 'turk'}",[],,,,,,,,,,src/images/main/6.jpg,74.0,j,no GAD,6.0,False,False,1.0,False,,,
687.0,,main,1,single-stim-rev-cor-trial,66,233405,judging_faces,,,,,False,True,turk,2025-03-25T16:08:58Z,gad,2025-03-25T16:22:00Z,779714,"""100.64.0.2""",2025-03-11,b7rgecm91q5gwpo,False,2785118609-exa-1898957330-mple,1742918938773,https://uiuc.sona-systems.com/webstudy_credit.aspxexperiment_id=&credit_token=&survey_code=,"{'assignmentId': '', 'hitId': '', 'workerId': '', 'turkSubmitTo': '', 'previewMode': False, 'outsideTurk': True, 'platform': 'turk'}",[],,,,,,,,,,src/images/main/141.jpg,74.0,j,no GAD,141.0,False,False,1.0,False,,,
1403.3000001907349,,main,1,single-stim-rev-cor-trial,67,234810,judging_faces,,,,,False,True,turk,2025-03-25T16:08:58Z,gad,2025-03-25T16:22:00Z,779714,"""100.64.0.2""",2025-03-11,b7rgecm91q5gwpo,False,2785118609-exa-1898957330-mple,1742918938773,https://uiuc.sona-systems.com/webstudy_credit.aspxexperiment_id=&credit_token=&survey_code=,"{'assignmentId': '', 'hitId': '', 'workerId': '', 'turkSubmitTo': '', 'previewMode': False, 'outsideTurk': True, 'platform': 'turk'}",[],,,,,,,,,,src/images/main/36.jpg,70.0,f,GAD,36.0,False,True,1.0,False,,,
3375.0,,main,1,single-stim-rev-cor-trial,68,238187,judging_faces,,,,,False,True,turk,2025-03-25T16:08:58Z,gad,2025-03-25T16:22:00Z,779714,"""100.64.0.2""",2025-03-11,b7rgecm91q5gwpo,False,2785118609-exa-1898957330-mple,1742918938773,https://uiuc.sona-systems.com/webstudy_credit.aspxexperiment_id=&credit_token=&survey_code=,"{'assignmentId': '', 'hitId': '', 'workerId': '', 'turkSubmitTo': '', 'previewMode': False, 'outsideTurk': True, 'platform': 'turk'}",[],,,,,,,,,,src/images/main/14.jpg,70.0,f,GAD,14.0,False,True,1.0,False,,,
817.5999999046326,,main,1,single-stim-rev-cor-trial,69,239006,judging_faces,,,,,False,True,turk,2025-03-25T16:08:58Z,gad,2025-03-25T16:22:00Z,779714,"""100.64.0.2""",2025-03-11,b7rgecm91q5gwpo,False,2785118609-exa-1898957330-mple,1742918938773,https://uiuc.sona-systems.com/webstudy_credit.aspxexperiment_id=&credit_token=&survey_code=,"{'assignmentId': '', 'hitId': '', 'workerId': '', 'turkSubmitTo': '', 'previewMode': False, 'outsideTurk': True, 'platform': 'turk'}",[],,,,,,,,,,src/images/main/3.jpg,70.0,f,GAD,3.0,False,True,1.0,False,,,
812.2999999523163,,main,1,single-stim-rev-cor-trial,70,239820,judging_faces,,,,,False,True,turk,2025-03-25T16:08:58Z,gad,2025-03-25T16:22:00Z,779714,"""100.64.0.2""",2025-03-11,b7rgecm91q5gwpo,False,2785118609-exa-1898957330-mple,1742918938773,https://uiuc.sona-systems.com/webstudy_credit.aspxexperiment_id=&credit_token=&survey_code=,"{'assignmentId': '', 'hitId': '', 'workerId': '', 'turkSubmitTo': '', 'previewMode': False, 'outsideTurk': True, 'platform': 'turk'}",[],,,,,,,,,,src/images/main/21.jpg,74.0,j,no GAD,21.0,False,False,1.0,False,,,
863.5999999046326,,main,1,single-stim-rev-cor-trial,71,240685,judging_faces,,,,,False,True,turk,2025-03-25T16:08:58Z,gad,2025-03-25T16:22:00Z,779714,"""100.64.0.2""",2025-03-11,b7rgecm91q5gwpo,False,2785118609-exa-1898957330-mple,1742918938773,https://uiuc.sona-systems.com/webstudy_credit.aspxexperiment_id=&credit_token=&survey_code=,"{'assignmentId': '', 'hitId': '', 'workerId': '', 'turkSubmitTo': '', 'previewMode': False, 'outsideTurk': True, 'platform': 'turk'}",[],,,,,,,,,,src/images/main/33.jpg,74.0,j,no GAD,33.0,False,False,1.0,False,,,
1338.2999999523163,,main,1,single-stim-rev-cor-trial,72,242025,judging_faces,,,,,False,True,turk,2025-03-25T16:08:58Z,gad,2025-03-25T16:22:00Z,779714,"""100.64.0.2""",2025-03-11,b7rgecm91q5gwpo,False,2785118609-exa-1898957330-mple,1742918938773,https://uiuc.sona-systems.com/webstudy_credit.aspxexperiment_id=&credit_token=&survey_code=,"{'assignmentId': '', 'hitId': '', 'workerId': '', 'turkSubmitTo': '', 'previewMode': False, 'outsideTurk': True, 'platform': 'turk'}",[],,,,,,,,,,src/images/main/255.jpg,74.0,j,no GAD,255.0,False,False,1.0,False,,,
892.0,,main,1,single-stim-rev-cor-trial,73,242919,judging_faces,,,,,False,True,turk,2025-03-25T16:08:58Z,gad,2025-03-25T16:22:00Z,779714,"""100.64.0.2""",2025-03-11,b7rgecm91q5gwpo,False,2785118609-exa-1898957330-mple,1742918938773,https://uiuc.sona-systems.com/webstudy_credit.aspxexperiment_id=&credit_token=&survey_code=,"{'assignmentId': '', 'hitId': '', 'workerId': '', 'turkSubmitTo': '', 'previewMode': False, 'outsideTurk': True, 'platform': 'turk'}",[],,,,,,,,,,src/images/main/119.jpg,70.0,f,GAD,119.0,False,True,1.0,False,,,
1264.7000000476837,,main,1,single-stim-rev-cor-trial,74,244185,judging_faces,,,,,False,True,turk,2025-03-25T16:08:58Z,gad,2025-03-25T16:22:00Z,779714,"""100.64.0.2""",2025-03-11,b7rgecm91q5gwpo,False,2785118609-exa-1898957330-mple,1742918938773,https://uiuc.sona-systems.com/webstudy_credit.aspxexperiment_id=&credit_token=&survey_code=,"{'assignmentId': '', 'hitId': '', 'workerId': '', 'turkSubmitTo': '', 'previewMode': False, 'outsideTurk': True, 'platform': 'turk'}",[],,,,,,,,,,src/images/main/50.jpg,70.0,f,GAD,50.0,False,True,1.0,False,,,
868.7999999523163,,main,1,single-stim-rev-cor-trial,75,245056,judging_faces,,,,,False,True,turk,2025-03-25T16:08:58Z,gad,2025-03-25T16:22:00Z,779714,"""100.64.0.2""",2025-03-11,b7rgecm91q5gwpo,False,2785118609-exa-1898957330-mple,1742918938773,https://uiuc.sona-systems.com/webstudy_credit.aspxexperiment_id=&credit_token=&survey_code=,"{'assignmentId': '', 'hitId': '', 'workerId': '', 'turkSubmitTo': '', 'previewMode': False, 'outsideTurk': True, 'platform': 'turk'}",[],,,,,,,,,,src/images/main/20.jpg,70.0,f,GAD,20.0,False,True,1.0,False,,,
957.9000000953674,,main,1,single-stim-rev-cor-trial,76,246015,judging_faces,,,,,False,True,turk,2025-03-25T16:08:58Z,gad,2025-03-25T16:22:00Z,779714,"""100.64.0.2""",2025-03-11,b7rgecm91q5gwpo,False,2785118609-exa-1898957330-mple,1742918938773,https://uiuc.sona-systems.com/webstudy_credit.aspxexperiment_id=&credit_token=&survey_code=,"{'assignmentId': '', 'hitId': '', 'workerId': '', 'turkSubmitTo': '', 'previewMode': False, 'outsideTurk': True, 'platform': 'turk'}",[],,,,,,,,,,src/images/main/90.jpg,70.0,f,GAD,90.0,False,True,1.0,False,,,
1397.5999999046326,,main,1,single-stim-rev-cor-trial,77,247415,judging_faces,,,,,False,True,turk,2025-03-25T16:08:58Z,gad,2025-03-25T16:22:00Z,779714,"""100.64.0.2""",2025-03-11,b7rgecm91q5gwpo,False,2785118609-exa-1898957330-mple,1742918938773,https://uiuc.sona-systems.com/webstudy_credit.aspxexperiment_id=&credit_token=&survey_code=,"{'assignmentId': '', 'hitId': '', 'workerId': '', 'turkSubmitTo': '', 'previewMode': False, 'outsideTurk': True, 'platform': 'turk'}",[],,,,,,,,,,src/images/main/109.jpg,74.0,j,no GAD,109.0,False,False,1.0,False,,,
471.39999985694885,,main,1,single-stim-rev-cor-trial,78,247888,judging_faces,,,,,False,True,turk,2025-03-25T16:08:58Z,gad,2025-03-25T16:22:00Z,779714,"""100.64.0.2""",2025-03-11,b7rgecm91q5gwpo,False,2785118609-exa-1898957330-mple,1742918938773,https://uiuc.sona-systems.com/webstudy_credit.aspxexperiment_id=&credit_token=&survey_code=,"{'assignmentId': '', 'hitId': '', 'workerId': '', 'turkSubmitTo': '', 'previewMode': False, 'outsideTurk': True, 'platform': 'turk'}",[],,,,,,,,,,src/images/main/219.jpg,74.0,j,no GAD,219.0,False,False,1.0,False,,,
916.4000000953674,,main,1,single-stim-rev-cor-trial,79,248806,judging_faces,,,,,False,True,turk,2025-03-25T16:08:58Z,gad,2025-03-25T16:22:00Z,779714,"""100.64.0.2""",2025-03-11,b7rgecm91q5gwpo,False,2785118609-exa-1898957330-mple,1742918938773,https://uiuc.sona-systems.com/webstudy_credit.aspxexperiment_id=&credit_token=&survey_code=,"{'assignmentId': '', 'hitId': '', 'workerId': '', 'turkSubmitTo': '', 'previewMode': False, 'outsideTurk': True, 'platform': 'turk'}",[],,,,,,,,,,src/images/main/245.jpg,74.0,j,no GAD,245.0,False,False,1.0,False,,,
1144.0,,main,1,single-stim-rev-cor-trial,80,249951,judging_faces,,,,,False,True,turk,2025-03-25T16:08:58Z,gad,2025-03-25T16:22:00Z,779714,"""100.64.0.2""",2025-03-11,b7rgecm91q5gwpo,False,2785118609-exa-1898957330-mple,1742918938773,https://uiuc.sona-systems.com/webstudy_credit.aspxexperiment_id=&credit_token=&survey_code=,"{'assignmentId': '', 'hitId': '', 'workerId': '', 'turkSubmitTo': '', 'previewMode': False, 'outsideTurk': True, 'platform': 'turk'}",[],,,,,,,,,,src/images/main/167.jpg,74.0,j,no GAD,167.0,False,False,1.0,False,,,
1003.1000001430511,,main,1,single-stim-rev-cor-trial,81,250956,judging_faces,,,,,False,True,turk,2025-03-25T16:08:58Z,gad,2025-03-25T16:22:00Z,779714,"""100.64.0.2""",2025-03-11,b7rgecm91q5gwpo,False,2785118609-exa-1898957330-mple,1742918938773,https://uiuc.sona-systems.com/webstudy_credit.aspxexperiment_id=&credit_token=&survey_code=,"{'assignmentId': '', 'hitId': '', 'workerId': '', 'turkSubmitTo': '', 'previewMode': False, 'outsideTurk': True, 'platform': 'turk'}",[],,,,,,,,,,src/images/main/16.jpg,70.0,f,GAD,16.0,False,True,1.0,False,,,
788.5,,main,1,single-stim-rev-cor-trial,82,251746,judging_faces,,,,,False,True,turk,2025-03-25T16:08:58Z,gad,2025-03-25T16:22:00Z,779714,"""100.64.0.2""",2025-03-11,b7rgecm91q5gwpo,False,2785118609-exa-1898957330-mple,1742918938773,https://uiuc.sona-systems.com/webstudy_credit.aspxexperiment_id=&credit_token=&survey_code=,"{'assignmentId': '', 'hitId': '', 'workerId': '', 'turkSubmitTo': '', 'previewMode': False, 'outsideTurk': True, 'platform': 'turk'}",[],,,,,,,,,,src/images/main/52.jpg,70.0,f,GAD,52.0,False,True,1.0,False,,,
977.5999999046326,,main,1,single-stim-rev-cor-trial,83,252726,judging_faces,,,,,False,True,turk,2025-03-25T16:08:58Z,gad,2025-03-25T16:22:00Z,779714,"""100.64.0.2""",2025-03-11,b7rgecm91q5gwpo,False,2785118609-exa-1898957330-mple,1742918938773,https://uiuc.sona-systems.com/webstudy_credit.aspxexperiment_id=&credit_token=&survey_code=,"{'assignmentId': '', 'hitId': '', 'workerId': '', 'turkSubmitTo': '', 'previewMode': False, 'outsideTurk': True, 'platform': 'turk'}",[],,,,,,,,,,src/images/main/1.jpg,74.0,j,no GAD,1.0,False,False,1.0,False,,,
982.3999998569489,,main,1,single-stim-rev-cor-trial,84,253709,judging_faces,,,,,False,True,turk,2025-03-25T16:08:58Z,gad,2025-03-25T16:22:00Z,779714,"""100.64.0.2""",2025-03-11,b7rgecm91q5gwpo,False,2785118609-exa-1898957330-mple,1742918938773,https://uiuc.sona-systems.com/webstudy_credit.aspxexperiment_id=&credit_token=&survey_code=,"{'assignmentId': '', 'hitId': '', 'workerId': '', 'turkSubmitTo': '', 'previewMode': False, 'outsideTurk': True, 'platform': 'turk'}",[],,,,,,,,,,src/images/main/213.jpg,74.0,j,no GAD,213.0,False,False,1.0,False,,,
580.0,,main,1,single-stim-rev-cor-trial,85,254291,judging_faces,,,,,False,True,turk,2025-03-25T16:08:58Z,gad,2025-03-25T16:22:00Z,779714,"""100.64.0.2""",2025-03-11,b7rgecm91q5gwpo,False,2785118609-exa-1898957330-mple,1742918938773,https://uiuc.sona-systems.com/webstudy_credit.aspxexperiment_id=&credit_token=&survey_code=,"{'assignmentId': '', 'hitId': '', 'workerId': '', 'turkSubmitTo': '', 'previewMode': False, 'outsideTurk': True, 'platform': 'turk'}",[],,,,,,,,,,src/images/main/170.jpg,74.0,j,no GAD,170.0,False,False,1.0,False,,,
858.7999999523163,,main,1,single-stim-rev-cor-trial,86,255151,judging_faces,,,,,False,True,turk,2025-03-25T16:08:58Z,gad,2025-03-25T16:22:00Z,779714,"""100.64.0.2""",2025-03-11,b7rgecm91q5gwpo,False,2785118609-exa-1898957330-mple,1742918938773,https://uiuc.sona-systems.com/webstudy_credit.aspxexperiment_id=&credit_token=&survey_code=,"{'assignmentId': '', 'hitId': '', 'workerId': '', 'turkSubmitTo': '', 'previewMode': False, 'outsideTurk': True, 'platform': 'turk'}",[],,,,,,,,,,src/images/main/42.jpg,74.0,j,no GAD,42.0,False,False,1.0,False,,,
2811.2999999523163,,main,1,single-stim-rev-cor-trial,87,257964,judging_faces,,,,,False,True,turk,2025-03-25T16:08:58Z,gad,2025-03-25T16:22:00Z,779714,"""100.64.0.2""",2025-03-11,b7rgecm91q5gwpo,False,2785118609-exa-1898957330-mple,1742918938773,https://uiuc.sona-systems.com/webstudy_credit.aspxexperiment_id=&credit_token=&survey_code=,"{'assignmentId': '', 'hitId': '', 'workerId': '', 'turkSubmitTo': '', 'previewMode': False, 'outsideTurk': True, 'platform': 'turk'}",[],,,,,,,,,,src/images/main/41.jpg,74.0,j,no GAD,41.0,False,False,1.0,False,,,
694.5,,main,1,single-stim-rev-cor-trial,88,258660,judging_faces,,,,,False,True,turk,2025-03-25T16:08:58Z,gad,2025-03-25T16:22:00Z,779714,"""100.64.0.2""",2025-03-11,b7rgecm91q5gwpo,False,2785118609-exa-1898957330-mple,1742918938773,https://uiuc.sona-systems.com/webstudy_credit.aspxexperiment_id=&credit_token=&survey_code=,"{'assignmentId': '', 'hitId': '', 'workerId': '', 'turkSubmitTo': '', 'previewMode': False, 'outsideTurk': True, 'platform': 'turk'}",[],,,,,,,,,,src/images/main/105.jpg,74.0,j,no GAD,105.0,False,False,1.0,False,,,
1159.7999999523163,,main,1,single-stim-rev-cor-trial,89,259822,judging_faces,,,,,False,True,turk,2025-03-25T16:08:58Z,gad,2025-03-25T16:22:00Z,779714,"""100.64.0.2""",2025-03-11,b7rgecm91q5gwpo,False,2785118609-exa-1898957330-mple,1742918938773,https://uiuc.sona-systems.com/webstudy_credit.aspxexperiment_id=&credit_token=&survey_code=,"{'assignmentId': '', 'hitId': '', 'workerId': '', 'turkSubmitTo': '', 'previewMode': False, 'outsideTurk': True, 'platform': 'turk'}",[],,,,,,,,,,src/images/main/129.jpg,70.0,f,GAD,129.0,False,True,1.0,False,,,
1292.0999999046326,,main,1,single-stim-rev-cor-trial,90,261115,judging_faces,,,,,False,True,turk,2025-03-25T16:08:58Z,gad,2025-03-25T16:22:00Z,779714,"""100.64.0.2""",2025-03-11,b7rgecm91q5gwpo,False,2785118609-exa-1898957330-mple,1742918938773,https://uiuc.sona-systems.com/webstudy_credit.aspxexperiment_id=&credit_token=&survey_code=,"{'assignmentId': '', 'hitId': '', 'workerId': '', 'turkSubmitTo': '', 'previewMode': False, 'outsideTurk': True, 'platform': 'turk'}",[],,,,,,,,,,src/images/main/194.jpg,74.0,j,no GAD,194.0,False,False,1.0,False,,,
801.7999999523163,,main,1,single-stim-rev-cor-trial,91,261918,judging_faces,,,,,False,True,turk,2025-03-25T16:08:58Z,gad,2025-03-25T16:22:00Z,779714,"""100.64.0.2""",2025-03-11,b7rgecm91q5gwpo,False,2785118609-exa-1898957330-mple,1742918938773,https://uiuc.sona-systems.com/webstudy_credit.aspxexperiment_id=&credit_token=&survey_code=,"{'assignmentId': '', 'hitId': '', 'workerId': '', 'turkSubmitTo': '', 'previewMode': False, 'outsideTurk': True, 'platform': 'turk'}",[],,,,,,,,,,src/images/main/183.jpg,74.0,j,no GAD,183.0,False,False,1.0,False,,,
1391.9000000953674,,main,1,single-stim-rev-cor-trial,92,263312,judging_faces,,,,,False,True,turk,2025-03-25T16:08:58Z,gad,2025-03-25T16:22:00Z,779714,"""100.64.0.2""",2025-03-11,b7rgecm91q5gwpo,False,2785118609-exa-1898957330-mple,1742918938773,https://uiuc.sona-systems.com/webstudy_credit.aspxexperiment_id=&credit_token=&survey_code=,"{'assignmentId': '', 'hitId': '', 'workerId': '', 'turkSubmitTo': '', 'previewMode': False, 'outsideTurk': True, 'platform': 'turk'}",[],,,,,,,,,,src/images/main/202.jpg,74.0,j,no GAD,202.0,False,False,1.0,False,,,
1619.5,,main,1,single-stim-rev-cor-trial,93,264933,judging_faces,,,,,False,True,turk,2025-03-25T16:08:58Z,gad,2025-03-25T16:22:00Z,779714,"""100.64.0.2""",2025-03-11,b7rgecm91q5gwpo,False,2785118609-exa-1898957330-mple,1742918938773,https://uiuc.sona-systems.com/webstudy_credit.aspxexperiment_id=&credit_token=&survey_code=,"{'assignmentId': '', 'hitId': '', 'workerId': '', 'turkSubmitTo': '', 'previewMode': False, 'outsideTurk': True, 'platform': 'turk'}",[],,,,,,,,,,src/images/main/61.jpg,70.0,f,GAD,61.0,False,True,1.0,False,,,
1290.9000000953674,,main,1,single-stim-rev-cor-trial,94,266225,judging_faces,,,,,False,True,turk,2025-03-25T16:08:58Z,gad,2025-03-25T16:22:00Z,779714,"""100.64.0.2""",2025-03-11,b7rgecm91q5gwpo,False,2785118609-exa-1898957330-mple,1742918938773,https://uiuc.sona-systems.com/webstudy_credit.aspxexperiment_id=&credit_token=&survey_code=,"{'assignmentId': '', 'hitId': '', 'workerId': '', 'turkSubmitTo': '', 'previewMode': False, 'outsideTurk': True, 'platform': 'turk'}",[],,,,,,,,,,src/images/main/164.jpg,70.0,f,GAD,164.0,False,True,1.0,False,,,
856.6000001430511,,main,1,single-stim-rev-cor-trial,95,267083,judging_faces,,,,,False,True,turk,2025-03-25T16:08:58Z,gad,2025-03-25T16:22:00Z,779714,"""100.64.0.2""",2025-03-11,b7rgecm91q5gwpo,False,2785118609-exa-1898957330-mple,1742918938773,https://uiuc.sona-systems.com/webstudy_credit.aspxexperiment_id=&credit_token=&survey_code=,"{'assignmentId': '', 'hitId': '', 'workerId': '', 'turkSubmitTo': '', 'previewMode': False, 'outsideTurk': True, 'platform': 'turk'}",[],,,,,,,,,,src/images/main/101.jpg,74.0,j,no GAD,101.0,False,False,1.0,False,,,
3040.7000000476837,,main,1,single-stim-rev-cor-trial,96,270126,judging_faces,,,,,False,True,turk,2025-03-25T16:08:58Z,gad,2025-03-25T16:22:00Z,779714,"""100.64.0.2""",2025-03-11,b7rgecm91q5gwpo,False,2785118609-exa-1898957330-mple,1742918938773,https://uiuc.sona-systems.com/webstudy_credit.aspxexperiment_id=&credit_token=&survey_code=,"{'assignmentId': '', 'hitId': '', 'workerId': '', 'turkSubmitTo': '', 'previewMode': False, 'outsideTurk': True, 'platform': 'turk'}",[],,,,,,,,,,src/images/main/18.jpg,74.0,j,no GAD,18.0,False,False,1.0,False,,,
1409.5999999046326,,main,1,single-stim-rev-cor-trial,97,271537,judging_faces,,,,,False,True,turk,2025-03-25T16:08:58Z,gad,2025-03-25T16:22:00Z,779714,"""100.64.0.2""",2025-03-11,b7rgecm91q5gwpo,False,2785118609-exa-1898957330-mple,1742918938773,https://uiuc.sona-systems.com/webstudy_credit.aspxexperiment_id=&credit_token=&survey_code=,"{'assignmentId': '', 'hitId': '', 'workerId': '', 'turkSubmitTo': '', 'previewMode': False, 'outsideTurk': True, 'platform': 'turk'}",[],,,,,,,,,,src/images/main/31.jpg,74.0,j,no GAD,31.0,False,False,1.0,False,,,
2107.899999856949,,main,1,single-stim-rev-cor-trial,98,273647,judging_faces,,,,,False,True,turk,2025-03-25T16:08:58Z,gad,2025-03-25T16:22:00Z,779714,"""100.64.0.2""",2025-03-11,b7rgecm91q5gwpo,False,2785118609-exa-1898957330-mple,1742918938773,https://uiuc.sona-systems.com/webstudy_credit.aspxexperiment_id=&credit_token=&survey_code=,"{'assignmentId': '', 'hitId': '', 'workerId': '', 'turkSubmitTo': '', 'previewMode': False, 'outsideTurk': True, 'platform': 'turk'}",[],,,,,,,,,,src/images/main/138.jpg,74.0,j,no GAD,138.0,False,False,1.0,False,,,
893.9000000953674,,main,1,single-stim-rev-cor-trial,99,274542,judging_faces,,,,,False,True,turk,2025-03-25T16:08:58Z,gad,2025-03-25T16:22:00Z,779714,"""100.64.0.2""",2025-03-11,b7rgecm91q5gwpo,False,2785118609-exa-1898957330-mple,1742918938773,https://uiuc.sona-systems.com/webstudy_credit.aspxexperiment_id=&credit_token=&survey_code=,"{'assignmentId': '', 'hitId': '', 'workerId': '', 'turkSubmitTo': '', 'previewMode': False, 'outsideTurk': True, 'platform': 'turk'}",[],,,,,,,,,,src/images/main/177.jpg,74.0,j,no GAD,177.0,False,False,1.0,False,,,
740.8999998569489,,main,1,single-stim-rev-cor-trial,100,275285,judging_faces,,,,,False,True,turk,2025-03-25T16:08:58Z,gad,2025-03-25T16:22:00Z,779714,"""100.64.0.2""",2025-03-11,b7rgecm91q5gwpo,False,2785118609-exa-1898957330-mple,1742918938773,https://uiuc.sona-systems.com/webstudy_credit.aspxexperiment_id=&credit_token=&survey_code=,"{'assignmentId': '', 'hitId': '', 'workerId': '', 'turkSubmitTo': '', 'previewMode': False, 'outsideTurk': True, 'platform': 'turk'}",[],,,,,,,,,,src/images/main/155.jpg,74.0,j,no GAD,155.0,False,False,1.0,False,,,
848.5,,main,1,single-stim-rev-cor-trial,101,276135,judging_faces,,,,,False,True,turk,2025-03-25T16:08:58Z,gad,2025-03-25T16:22:00Z,779714,"""100.64.0.2""",2025-03-11,b7rgecm91q5gwpo,False,2785118609-exa-1898957330-mple,1742918938773,https://uiuc.sona-systems.com/webstudy_credit.aspxexperiment_id=&credit_token=&survey_code=,"{'assignmentId': '', 'hitId': '', 'workerId': '', 'turkSubmitTo': '', 'previewMode': False, 'outsideTurk': True, 'platform': 'turk'}",[],,,,,,,,,,src/images/main/263.jpg,74.0,j,no GAD,263.0,False,False,1.0,False,,,
806.0,,main,1,single-stim-rev-cor-trial,102,276943,judging_faces,,,,,False,True,turk,2025-03-25T16:08:58Z,gad,2025-03-25T16:22:00Z,779714,"""100.64.0.2""",2025-03-11,b7rgecm91q5gwpo,False,2785118609-exa-1898957330-mple,1742918938773,https://uiuc.sona-systems.com/webstudy_credit.aspxexperiment_id=&credit_token=&survey_code=,"{'assignmentId': '', 'hitId': '', 'workerId': '', 'turkSubmitTo': '', 'previewMode': False, 'outsideTurk': True, 'platform': 'turk'}",[],,,,,,,,,,src/images/main/285.jpg,74.0,j,no GAD,285.0,False,False,1.0,False,,,
1022.0,,main,1,single-stim-rev-cor-trial,103,277966,judging_faces,,,,,False,True,turk,2025-03-25T16:08:58Z,gad,2025-03-25T16:22:00Z,779714,"""100.64.0.2""",2025-03-11,b7rgecm91q5gwpo,False,2785118609-exa-1898957330-mple,1742918938773,https://uiuc.sona-systems.com/webstudy_credit.aspxexperiment_id=&credit_token=&survey_code=,"{'assignmentId': '', 'hitId': '', 'workerId': '', 'turkSubmitTo': '', 'previewMode': False, 'outsideTurk': True, 'platform': 'turk'}",[],,,,,,,,,,src/images/main/156.jpg,70.0,f,GAD,156.0,False,True,1.0,False,,,
1939.6000001430511,,main,1,single-stim-rev-cor-trial,104,279908,judging_faces,,,,,False,True,turk,2025-03-25T16:08:58Z,gad,2025-03-25T16:22:00Z,779714,"""100.64.0.2""",2025-03-11,b7rgecm91q5gwpo,False,2785118609-exa-1898957330-mple,1742918938773,https://uiuc.sona-systems.com/webstudy_credit.aspxexperiment_id=&credit_token=&survey_code=,"{'assignmentId': '', 'hitId': '', 'workerId': '', 'turkSubmitTo': '', 'previewMode': False, 'outsideTurk': True, 'platform': 'turk'}",[],,,,,,,,,,src/images/main/290.jpg,74.0,j,no GAD,290.0,False,False,1.0,False,,,
1750.0999999046326,,main,1,single-stim-rev-cor-trial,105,281659,judging_faces,,,,,False,True,turk,2025-03-25T16:08:58Z,gad,2025-03-25T16:22:00Z,779714,"""100.64.0.2""",2025-03-11,b7rgecm91q5gwpo,False,2785118609-exa-1898957330-mple,1742918938773,https://uiuc.sona-systems.com/webstudy_credit.aspxexperiment_id=&credit_token=&survey_code=,"{'assignmentId': '', 'hitId': '', 'workerId': '', 'turkSubmitTo': '', 'previewMode': False, 'outsideTurk': True, 'platform': 'turk'}",[],,,,,,,,,,src/images/main/172.jpg,74.0,j,no GAD,172.0,False,False,1.0,False,,,
1327.8999998569489,,main,1,single-stim-rev-cor-trial,106,282989,judging_faces,,,,,False,True,turk,2025-03-25T16:08:58Z,gad,2025-03-25T16:22:00Z,779714,"""100.64.0.2""",2025-03-11,b7rgecm91q5gwpo,False,2785118609-exa-1898957330-mple,1742918938773,https://uiuc.sona-systems.com/webstudy_credit.aspxexperiment_id=&credit_token=&survey_code=,"{'assignmentId': '', 'hitId': '', 'workerId': '', 'turkSubmitTo': '', 'previewMode': False, 'outsideTurk': True, 'platform': 'turk'}",[],,,,,,,,,,src/images/main/2.jpg,70.0,f,GAD,2.0,False,True,1.0,False,,,
2041.2000000476837,,main,1,single-stim-rev-cor-trial,107,285032,judging_faces,,,,,False,True,turk,2025-03-25T16:08:58Z,gad,2025-03-25T16:22:00Z,779714,"""100.64.0.2""",2025-03-11,b7rgecm91q5gwpo,False,2785118609-exa-1898957330-mple,1742918938773,https://uiuc.sona-systems.com/webstudy_credit.aspxexperiment_id=&credit_token=&survey_code=,"{'assignmentId': '', 'hitId': '', 'workerId': '', 'turkSubmitTo': '', 'previewMode': False, 'outsideTurk': True, 'platform': 'turk'}",[],,,,,,,,,,src/images/main/117.jpg,70.0,f,GAD,117.0,False,True,1.0,False,,,
774.9000000953674,,main,1,single-stim-rev-cor-trial,108,285808,judging_faces,,,,,False,True,turk,2025-03-25T16:08:58Z,gad,2025-03-25T16:22:00Z,779714,"""100.64.0.2""",2025-03-11,b7rgecm91q5gwpo,False,2785118609-exa-1898957330-mple,1742918938773,https://uiuc.sona-systems.com/webstudy_credit.aspxexperiment_id=&credit_token=&survey_code=,"{'assignmentId': '', 'hitId': '', 'workerId': '', 'turkSubmitTo': '', 'previewMode': False, 'outsideTurk': True, 'platform': 'turk'}",[],,,,,,,,,,src/images/main/216.jpg,74.0,j,no GAD,216.0,False,False,1.0,False,,,
1088.4000000953674,,main,1,single-stim-rev-cor-trial,109,286898,judging_faces,,,,,False,True,turk,2025-03-25T16:08:58Z,gad,2025-03-25T16:22:00Z,779714,"""100.64.0.2""",2025-03-11,b7rgecm91q5gwpo,False,2785118609-exa-1898957330-mple,1742918938773,https://uiuc.sona-systems.com/webstudy_credit.aspxexperiment_id=&credit_token=&survey_code=,"{'assignmentId': '', 'hitId': '', 'workerId': '', 'turkSubmitTo': '', 'previewMode': False, 'outsideTurk': True, 'platform': 'turk'}",[],,,,,,,,,,src/images/main/227.jpg,70.0,f,GAD,227.0,False,True,1.0,False,,,
1069.9000000953674,,main,1,single-stim-rev-cor-trial,110,287970,judging_faces,,,,,False,True,turk,2025-03-25T16:08:58Z,gad,2025-03-25T16:22:00Z,779714,"""100.64.0.2""",2025-03-11,b7rgecm91q5gwpo,False,2785118609-exa-1898957330-mple,1742918938773,https://uiuc.sona-systems.com/webstudy_credit.aspxexperiment_id=&credit_token=&survey_code=,"{'assignmentId': '', 'hitId': '', 'workerId': '', 'turkSubmitTo': '', 'previewMode': False, 'outsideTurk': True, 'platform': 'turk'}",[],,,,,,,,,,src/images/main/153.jpg,74.0,j,no GAD,153.0,False,False,1.0,False,,,
1462.1000001430511,,main,1,single-stim-rev-cor-trial,111,289434,judging_faces,,,,,False,True,turk,2025-03-25T16:08:58Z,gad,2025-03-25T16:22:00Z,779714,"""100.64.0.2""",2025-03-11,b7rgecm91q5gwpo,False,2785118609-exa-1898957330-mple,1742918938773,https://uiuc.sona-systems.com/webstudy_credit.aspxexperiment_id=&credit_token=&survey_code=,"{'assignmentId': '', 'hitId': '', 'workerId': '', 'turkSubmitTo': '', 'previewMode': False, 'outsideTurk': True, 'platform': 'turk'}",[],,,,,,,,,,src/images/main/284.jpg,70.0,f,GAD,284.0,False,True,1.0,False,,,
1208.9000000953674,,main,1,single-stim-rev-cor-trial,112,290644,judging_faces,,,,,False,True,turk,2025-03-25T16:08:58Z,gad,2025-03-25T16:22:00Z,779714,"""100.64.0.2""",2025-03-11,b7rgecm91q5gwpo,False,2785118609-exa-1898957330-mple,1742918938773,https://uiuc.sona-systems.com/webstudy_credit.aspxexperiment_id=&credit_token=&survey_code=,"{'assignmentId': '', 'hitId': '', 'workerId': '', 'turkSubmitTo': '', 'previewMode': False, 'outsideTurk': True, 'platform': 'turk'}",[],,,,,,,,,,src/images/main/159.jpg,70.0,f,GAD,159.0,False,True,1.0,False,,,
843.7000000476837,,main,1,single-stim-rev-cor-trial,113,291490,judging_faces,,,,,False,True,turk,2025-03-25T16:08:58Z,gad,2025-03-25T16:22:00Z,779714,"""100.64.0.2""",2025-03-11,b7rgecm91q5gwpo,False,2785118609-exa-1898957330-mple,1742918938773,https://uiuc.sona-systems.com/webstudy_credit.aspxexperiment_id=&credit_token=&survey_code=,"{'assignmentId': '', 'hitId': '', 'workerId': '', 'turkSubmitTo': '', 'previewMode': False, 'outsideTurk': True, 'platform': 'turk'}",[],,,,,,,,,,src/images/main/171.jpg,70.0,f,GAD,171.0,False,True,1.0,False,,,
726.5999999046326,,main,1,single-stim-rev-cor-trial,114,292218,judging_faces,,,,,False,True,turk,2025-03-25T16:08:58Z,gad,2025-03-25T16:22:00Z,779714,"""100.64.0.2""",2025-03-11,b7rgecm91q5gwpo,False,2785118609-exa-1898957330-mple,1742918938773,https://uiuc.sona-systems.com/webstudy_credit.aspxexperiment_id=&credit_token=&survey_code=,"{'assignmentId': '', 'hitId': '', 'workerId': '', 'turkSubmitTo': '', 'previewMode': False, 'outsideTurk': True, 'platform': 'turk'}",[],,,,,,,,,,src/images/main/66.jpg,74.0,j,no GAD,66.0,False,False,1.0,False,,,
1399.9000000953674,,main,1,single-stim-rev-cor-trial,115,293620,judging_faces,,,,,False,True,turk,2025-03-25T16:08:58Z,gad,2025-03-25T16:22:00Z,779714,"""100.64.0.2""",2025-03-11,b7rgecm91q5gwpo,False,2785118609-exa-1898957330-mple,1742918938773,https://uiuc.sona-systems.com/webstudy_credit.aspxexperiment_id=&credit_token=&survey_code=,"{'assignmentId': '', 'hitId': '', 'workerId': '', 'turkSubmitTo': '', 'previewMode': False, 'outsideTurk': True, 'platform': 'turk'}",[],,,,,,,,,,src/images/main/12.jpg,70.0,f,GAD,12.0,False,True,1.0,False,,,
3050.7999999523163,,main,1,single-stim-rev-cor-trial,116,296671,judging_faces,,,,,False,True,turk,2025-03-25T16:08:58Z,gad,2025-03-25T16:22:00Z,779714,"""100.64.0.2""",2025-03-11,b7rgecm91q5gwpo,False,2785118609-exa-1898957330-mple,1742918938773,https://uiuc.sona-systems.com/webstudy_credit.aspxexperiment_id=&credit_token=&survey_code=,"{'assignmentId': '', 'hitId': '', 'workerId': '', 'turkSubmitTo': '', 'previewMode': False, 'outsideTurk': True, 'platform': 'turk'}",[],,,,,,,,,,src/images/main/272.jpg,70.0,f,GAD,272.0,False,True,1.0,False,,,
1208.2999999523163,,main,1,single-stim-rev-cor-trial,117,297881,judging_faces,,,,,False,True,turk,2025-03-25T16:08:58Z,gad,2025-03-25T16:22:00Z,779714,"""100.64.0.2""",2025-03-11,b7rgecm91q5gwpo,False,2785118609-exa-1898957330-mple,1742918938773,https://uiuc.sona-systems.com/webstudy_credit.aspxexperiment_id=&credit_token=&survey_code=,"{'assignmentId': '', 'hitId': '', 'workerId': '', 'turkSubmitTo': '', 'previewMode': False, 'outsideTurk': True, 'platform': 'turk'}",[],,,,,,,,,,src/images/main/136.jpg,74.0,j,no GAD,136.0,False,False,1.0,False,,,
876.2000000476837,,main,1,single-stim-rev-cor-trial,118,298759,judging_faces,,,,,False,True,turk,2025-03-25T16:08:58Z,gad,2025-03-25T16:22:00Z,779714,"""100.64.0.2""",2025-03-11,b7rgecm91q5gwpo,False,2785118609-exa-1898957330-mple,1742918938773,https://uiuc.sona-systems.com/webstudy_credit.aspxexperiment_id=&credit_token=&survey_code=,"{'assignmentId': '', 'hitId': '', 'workerId': '', 'turkSubmitTo': '', 'previewMode': False, 'outsideTurk': True, 'platform': 'turk'}",[],,,,,,,,,,src/images/main/186.jpg,74.0,j,no GAD,186.0,False,False,1.0,False,,,
765.5,,main,1,single-stim-rev-cor-trial,119,299526,judging_faces,,,,,False,True,turk,2025-03-25T16:08:58Z,gad,2025-03-25T16:22:00Z,779714,"""100.64.0.2""",2025-03-11,b7rgecm91q5gwpo,False,2785118609-exa-1898957330-mple,1742918938773,https://uiuc.sona-systems.com/webstudy_credit.aspxexperiment_id=&credit_token=&survey_code=,"{'assignmentId': '', 'hitId': '', 'workerId': '', 'turkSubmitTo': '', 'previewMode': False, 'outsideTurk': True, 'platform': 'turk'}",[],,,,,,,,,,src/images/main/38.jpg,74.0,j,no GAD,38.0,False,False,1.0,False,,,
888.0,,main,1,single-stim-rev-cor-trial,120,300416,judging_faces,,,,,False,True,turk,2025-03-25T16:08:58Z,gad,2025-03-25T16:22:00Z,779714,"""100.64.0.2""",2025-03-11,b7rgecm91q5gwpo,False,2785118609-exa-1898957330-mple,1742918938773,https://uiuc.sona-systems.com/webstudy_credit.aspxexperiment_id=&credit_token=&survey_code=,"{'assignmentId': '', 'hitId': '', 'workerId': '', 'turkSubmitTo': '', 'previewMode': False, 'outsideTurk': True, 'platform': 'turk'}",[],,,,,,,,,,src/images/main/68.jpg,74.0,j,no GAD,68.0,False,False,1.0,False,,,
936.4000000953674,,main,1,single-stim-rev-cor-trial,121,301354,judging_faces,,,,,False,True,turk,2025-03-25T16:08:58Z,gad,2025-03-25T16:22:00Z,779714,"""100.64.0.2""",2025-03-11,b7rgecm91q5gwpo,False,2785118609-exa-1898957330-mple,1742918938773,https://uiuc.sona-systems.com/webstudy_credit.aspxexperiment_id=&credit_token=&survey_code=,"{'assignmentId': '', 'hitId': '', 'workerId': '', 'turkSubmitTo': '', 'previewMode': False, 'outsideTurk': True, 'platform': 'turk'}",[],,,,,,,,,,src/images/main/212.jpg,70.0,f,GAD,212.0,False,True,1.0,False,,,
925.2000000476837,,main,1,single-stim-rev-cor-trial,122,302281,judging_faces,,,,,False,True,turk,2025-03-25T16:08:58Z,gad,2025-03-25T16:22:00Z,779714,"""100.64.0.2""",2025-03-11,b7rgecm91q5gwpo,False,2785118609-exa-1898957330-mple,1742918938773,https://uiuc.sona-systems.com/webstudy_credit.aspxexperiment_id=&credit_token=&survey_code=,"{'assignmentId': '', 'hitId': '', 'workerId': '', 'turkSubmitTo': '', 'previewMode': False, 'outsideTurk': True, 'platform': 'turk'}",[],,,,,,,,,,src/images/main/89.jpg,70.0,f,GAD,89.0,False,True,1.0,False,,,
1255.2000000476837,,main,1,single-stim-rev-cor-trial,123,303539,judging_faces,,,,,False,True,turk,2025-03-25T16:08:58Z,gad,2025-03-25T16:22:00Z,779714,"""100.64.0.2""",2025-03-11,b7rgecm91q5gwpo,False,2785118609-exa-1898957330-mple,1742918938773,https://uiuc.sona-systems.com/webstudy_credit.aspxexperiment_id=&credit_token=&survey_code=,"{'assignmentId': '', 'hitId': '', 'workerId': '', 'turkSubmitTo': '', 'previewMode': False, 'outsideTurk': True, 'platform': 'turk'}",[],,,,,,,,,,src/images/main/241.jpg,74.0,j,no GAD,241.0,False,False,1.0,False,,,
863.6000001430511,,main,1,single-stim-rev-cor-trial,124,304404,judging_faces,,,,,False,True,turk,2025-03-25T16:08:58Z,gad,2025-03-25T16:22:00Z,779714,"""100.64.0.2""",2025-03-11,b7rgecm91q5gwpo,False,2785118609-exa-1898957330-mple,1742918938773,https://uiuc.sona-systems.com/webstudy_credit.aspxexperiment_id=&credit_token=&survey_code=,"{'assignmentId': '', 'hitId': '', 'workerId': '', 'turkSubmitTo': '', 'previewMode': False, 'outsideTurk': True, 'platform': 'turk'}",[],,,,,,,,,,src/images/main/102.jpg,74.0,j,no GAD,102.0,False,False,1.0,False,,,
876.5999999046326,,main,1,single-stim-rev-cor-trial,125,305282,judging_faces,,,,,False,True,turk,2025-03-25T16:08:58Z,gad,2025-03-25T16:22:00Z,779714,"""100.64.0.2""",2025-03-11,b7rgecm91q5gwpo,False,2785118609-exa-1898957330-mple,1742918938773,https://uiuc.sona-systems.com/webstudy_credit.aspxexperiment_id=&credit_token=&survey_code=,"{'assignmentId': '', 'hitId': '', 'workerId': '', 'turkSubmitTo': '', 'previewMode': False, 'outsideTurk': True, 'platform': 'turk'}",[],,,,,,,,,,src/images/main/85.jpg,74.0,j,no GAD,85.0,False,False,1.0,False,,,
736.5,,main,1,single-stim-rev-cor-trial,126,306020,judging_faces,,,,,False,True,turk,2025-03-25T16:08:58Z,gad,2025-03-25T16:22:00Z,779714,"""100.64.0.2""",2025-03-11,b7rgecm91q5gwpo,False,2785118609-exa-1898957330-mple,1742918938773,https://uiuc.sona-systems.com/webstudy_credit.aspxexperiment_id=&credit_token=&survey_code=,"{'assignmentId': '', 'hitId': '', 'workerId': '', 'turkSubmitTo': '', 'previewMode': False, 'outsideTurk': True, 'platform': 'turk'}",[],,,,,,,,,,src/images/main/144.jpg,70.0,f,GAD,144.0,False,True,1.0,False,,,
1101.2999999523163,,main,1,single-stim-rev-cor-trial,127,307124,judging_faces,,,,,False,True,turk,2025-03-25T16:08:58Z,gad,2025-03-25T16:22:00Z,779714,"""100.64.0.2""",2025-03-11,b7rgecm91q5gwpo,False,2785118609-exa-1898957330-mple,1742918938773,https://uiuc.sona-systems.com/webstudy_credit.aspxexperiment_id=&credit_token=&survey_code=,"{'assignmentId': '', 'hitId': '', 'workerId': '', 'turkSubmitTo': '', 'previewMode': False, 'outsideTurk': True, 'platform': 'turk'}",[],,,,,,,,,,src/images/main/49.jpg,70.0,f,GAD,49.0,False,True,1.0,False,,,
979.2000000476837,,main,1,single-stim-rev-cor-trial,128,308105,judging_faces,,,,,False,True,turk,2025-03-25T16:08:58Z,gad,2025-03-25T16:22:00Z,779714,"""100.64.0.2""",2025-03-11,b7rgecm91q5gwpo,False,2785118609-exa-1898957330-mple,1742918938773,https://uiuc.sona-systems.com/webstudy_credit.aspxexperiment_id=&credit_token=&survey_code=,"{'assignmentId': '', 'hitId': '', 'workerId': '', 'turkSubmitTo': '', 'previewMode': False, 'outsideTurk': True, 'platform': 'turk'}",[],,,,,,,,,,src/images/main/192.jpg,74.0,j,no GAD,192.0,False,False,1.0,False,,,
1398.1000001430511,,main,1,single-stim-rev-cor-trial,129,309504,judging_faces,,,,,False,True,turk,2025-03-25T16:08:58Z,gad,2025-03-25T16:22:00Z,779714,"""100.64.0.2""",2025-03-11,b7rgecm91q5gwpo,False,2785118609-exa-1898957330-mple,1742918938773,https://uiuc.sona-systems.com/webstudy_credit.aspxexperiment_id=&credit_token=&survey_code=,"{'assignmentId': '', 'hitId': '', 'workerId': '', 'turkSubmitTo': '', 'previewMode': False, 'outsideTurk': True, 'platform': 'turk'}",[],,,,,,,,,,src/images/main/88.jpg,70.0,f,GAD,88.0,False,True,1.0,False,,,
1281.8000001907349,,main,1,single-stim-rev-cor-trial,130,310788,judging_faces,,,,,False,True,turk,2025-03-25T16:08:58Z,gad,2025-03-25T16:22:00Z,779714,"""100.64.0.2""",2025-03-11,b7rgecm91q5gwpo,False,2785118609-exa-1898957330-mple,1742918938773,https://uiuc.sona-systems.com/webstudy_credit.aspxexperiment_id=&credit_token=&survey_code=,"{'assignmentId': '', 'hitId': '', 'workerId': '', 'turkSubmitTo': '', 'previewMode': False, 'outsideTurk': True, 'platform': 'turk'}",[],,,,,,,,,,src/images/main/125.jpg,74.0,j,no GAD,125.0,False,False,1.0,False,,,
1147.2999999523163,,main,1,single-stim-rev-cor-trial,131,311937,judging_faces,,,,,False,True,turk,2025-03-25T16:08:58Z,gad,2025-03-25T16:22:00Z,779714,"""100.64.0.2""",2025-03-11,b7rgecm91q5gwpo,False,2785118609-exa-1898957330-mple,1742918938773,https://uiuc.sona-systems.com/webstudy_credit.aspxexperiment_id=&credit_token=&survey_code=,"{'assignmentId': '', 'hitId': '', 'workerId': '', 'turkSubmitTo': '', 'previewMode': False, 'outsideTurk': True, 'platform': 'turk'}",[],,,,,,,,,,src/images/main/246.jpg,70.0,f,GAD,246.0,False,True,1.0,False,,,
2155.5,,main,1,single-stim-rev-cor-trial,132,314094,judging_faces,,,,,False,True,turk,2025-03-25T16:08:58Z,gad,2025-03-25T16:22:00Z,779714,"""100.64.0.2""",2025-03-11,b7rgecm91q5gwpo,False,2785118609-exa-1898957330-mple,1742918938773,https://uiuc.sona-systems.com/webstudy_credit.aspxexperiment_id=&credit_token=&survey_code=,"{'assignmentId': '', 'hitId': '', 'workerId': '', 'turkSubmitTo': '', 'previewMode': False, 'outsideTurk': True, 'platform': 'turk'}",[],,,,,,,,,,src/images/main/166.jpg,74.0,j,no GAD,166.0,False,False,1.0,False,,,
745.5,,main,1,single-stim-rev-cor-trial,133,314841,judging_faces,,,,,False,True,turk,2025-03-25T16:08:58Z,gad,2025-03-25T16:22:00Z,779714,"""100.64.0.2""",2025-03-11,b7rgecm91q5gwpo,False,2785118609-exa-1898957330-mple,1742918938773,https://uiuc.sona-systems.com/webstudy_credit.aspxexperiment_id=&credit_token=&survey_code=,"{'assignmentId': '', 'hitId': '', 'workerId': '', 'turkSubmitTo': '', 'previewMode': False, 'outsideTurk': True, 'platform': 'turk'}",[],,,,,,,,,,src/images/main/84.jpg,70.0,f,GAD,84.0,False,True,1.0,False,,,
941.8999998569489,,main,1,single-stim-rev-cor-trial,134,315785,judging_faces,,,,,False,True,turk,2025-03-25T16:08:58Z,gad,2025-03-25T16:22:00Z,779714,"""100.64.0.2""",2025-03-11,b7rgecm91q5gwpo,False,2785118609-exa-1898957330-mple,1742918938773,https://uiuc.sona-systems.com/webstudy_credit.aspxexperiment_id=&credit_token=&survey_code=,"{'assignmentId': '', 'hitId': '', 'workerId': '', 'turkSubmitTo': '', 'previewMode': False, 'outsideTurk': True, 'platform': 'turk'}",[],,,,,,,,,,src/images/main/137.jpg,70.0,f,GAD,137.0,False,True,1.0,False,,,
2198.199999809265,,main,1,single-stim-rev-cor-trial,135,317986,judging_faces,,,,,False,True,turk,2025-03-25T16:08:58Z,gad,2025-03-25T16:22:00Z,779714,"""100.64.0.2""",2025-03-11,b7rgecm91q5gwpo,False,2785118609-exa-1898957330-mple,1742918938773,https://uiuc.sona-systems.com/webstudy_credit.aspxexperiment_id=&credit_token=&survey_code=,"{'assignmentId': '', 'hitId': '', 'workerId': '', 'turkSubmitTo': '', 'previewMode': False, 'outsideTurk': True, 'platform': 'turk'}",[],,,,,,,,,,src/images/main/209.jpg,70.0,f,GAD,209.0,False,True,1.0,False,,,
700.5,,main,1,single-stim-rev-cor-trial,136,318688,judging_faces,,,,,False,True,turk,2025-03-25T16:08:58Z,gad,2025-03-25T16:22:00Z,779714,"""100.64.0.2""",2025-03-11,b7rgecm91q5gwpo,False,2785118609-exa-1898957330-mple,1742918938773,https://uiuc.sona-systems.com/webstudy_credit.aspxexperiment_id=&credit_token=&survey_code=,"{'assignmentId': '', 'hitId': '', 'workerId': '', 'turkSubmitTo': '', 'previewMode': False, 'outsideTurk': True, 'platform': 'turk'}",[],,,,,,,,,,src/images/main/73.jpg,74.0,j,no GAD,73.0,False,False,1.0,False,,,
2259.899999856949,,main,1,single-stim-rev-cor-trial,137,320950,judging_faces,,,,,False,True,turk,2025-03-25T16:08:58Z,gad,2025-03-25T16:22:00Z,779714,"""100.64.0.2""",2025-03-11,b7rgecm91q5gwpo,False,2785118609-exa-1898957330-mple,1742918938773,https://uiuc.sona-systems.com/webstudy_credit.aspxexperiment_id=&credit_token=&survey_code=,"{'assignmentId': '', 'hitId': '', 'workerId': '', 'turkSubmitTo': '', 'previewMode': False, 'outsideTurk': True, 'platform': 'turk'}",[],,,,,,,,,,src/images/main/143.jpg,74.0,j,no GAD,143.0,False,False,1.0,False,,,
769.9000000953674,,main,1,single-stim-rev-cor-trial,138,321722,judging_faces,,,,,False,True,turk,2025-03-25T16:08:58Z,gad,2025-03-25T16:22:00Z,779714,"""100.64.0.2""",2025-03-11,b7rgecm91q5gwpo,False,2785118609-exa-1898957330-mple,1742918938773,https://uiuc.sona-systems.com/webstudy_credit.aspxexperiment_id=&credit_token=&survey_code=,"{'assignmentId': '', 'hitId': '', 'workerId': '', 'turkSubmitTo': '', 'previewMode': False, 'outsideTurk': True, 'platform': 'turk'}",[],,,,,,,,,,src/images/main/81.jpg,74.0,j,no GAD,81.0,False,False,1.0,False,,,
703.0,,main,1,single-stim-rev-cor-trial,139,322426,judging_faces,,,,,False,True,turk,2025-03-25T16:08:58Z,gad,2025-03-25T16:22:00Z,779714,"""100.64.0.2""",2025-03-11,b7rgecm91q5gwpo,False,2785118609-exa-1898957330-mple,1742918938773,https://uiuc.sona-systems.com/webstudy_credit.aspxexperiment_id=&credit_token=&survey_code=,"{'assignmentId': '', 'hitId': '', 'workerId': '', 'turkSubmitTo': '', 'previewMode': False, 'outsideTurk': True, 'platform': 'turk'}",[],,,,,,,,,,src/images/main/15.jpg,70.0,f,GAD,15.0,False,True,1.0,False,,,
809.2000000476837,,main,1,single-stim-rev-cor-trial,140,323238,judging_faces,,,,,False,True,turk,2025-03-25T16:08:58Z,gad,2025-03-25T16:22:00Z,779714,"""100.64.0.2""",2025-03-11,b7rgecm91q5gwpo,False,2785118609-exa-1898957330-mple,1742918938773,https://uiuc.sona-systems.com/webstudy_credit.aspxexperiment_id=&credit_token=&survey_code=,"{'assignmentId': '', 'hitId': '', 'workerId': '', 'turkSubmitTo': '', 'previewMode': False, 'outsideTurk': True, 'platform': 'turk'}",[],,,,,,,,,,src/images/main/251.jpg,74.0,j,no GAD,251.0,False,False,1.0,False,,,
847.8999998569489,,main,1,single-stim-rev-cor-trial,141,324087,judging_faces,,,,,False,True,turk,2025-03-25T16:08:58Z,gad,2025-03-25T16:22:00Z,779714,"""100.64.0.2""",2025-03-11,b7rgecm91q5gwpo,False,2785118609-exa-1898957330-mple,1742918938773,https://uiuc.sona-systems.com/webstudy_credit.aspxexperiment_id=&credit_token=&survey_code=,"{'assignmentId': '', 'hitId': '', 'workerId': '', 'turkSubmitTo': '', 'previewMode': False, 'outsideTurk': True, 'platform': 'turk'}",[],,,,,,,,,,src/images/main/252.jpg,70.0,f,GAD,252.0,False,True,1.0,False,,,
1936.0999999046326,,main,1,single-stim-rev-cor-trial,142,326025,judging_faces,,,,,False,True,turk,2025-03-25T16:08:58Z,gad,2025-03-25T16:22:00Z,779714,"""100.64.0.2""",2025-03-11,b7rgecm91q5gwpo,False,2785118609-exa-1898957330-mple,1742918938773,https://uiuc.sona-systems.com/webstudy_credit.aspxexperiment_id=&credit_token=&survey_code=,"{'assignmentId': '', 'hitId': '', 'workerId': '', 'turkSubmitTo': '', 'previewMode': False, 'outsideTurk': True, 'platform': 'turk'}",[],,,,,,,,,,src/images/main/25.jpg,74.0,j,no GAD,25.0,False,False,1.0,False,,,
989.5999999046326,,main,1,single-stim-rev-cor-trial,143,327016,judging_faces,,,,,False,True,turk,2025-03-25T16:08:58Z,gad,2025-03-25T16:22:00Z,779714,"""100.64.0.2""",2025-03-11,b7rgecm91q5gwpo,False,2785118609-exa-1898957330-mple,1742918938773,https://uiuc.sona-systems.com/webstudy_credit.aspxexperiment_id=&credit_token=&survey_code=,"{'assignmentId': '', 'hitId': '', 'workerId': '', 'turkSubmitTo': '', 'previewMode': False, 'outsideTurk': True, 'platform': 'turk'}",[],,,,,,,,,,src/images/main/150.jpg,74.0,j,no GAD,150.0,False,False,1.0,False,,,
567.2999999523163,,main,1,single-stim-rev-cor-trial,144,327585,judging_faces,,,,,False,True,turk,2025-03-25T16:08:58Z,gad,2025-03-25T16:22:00Z,779714,"""100.64.0.2""",2025-03-11,b7rgecm91q5gwpo,False,2785118609-exa-1898957330-mple,1742918938773,https://uiuc.sona-systems.com/webstudy_credit.aspxexperiment_id=&credit_token=&survey_code=,"{'assignmentId': '', 'hitId': '', 'workerId': '', 'turkSubmitTo': '', 'previewMode': False, 'outsideTurk': True, 'platform': 'turk'}",[],,,,,,,,,,src/images/main/78.jpg,74.0,j,no GAD,78.0,False,False,1.0,False,,,
476.5,,main,1,single-stim-rev-cor-trial,145,328063,judging_faces,,,,,False,True,turk,2025-03-25T16:08:58Z,gad,2025-03-25T16:22:00Z,779714,"""100.64.0.2""",2025-03-11,b7rgecm91q5gwpo,False,2785118609-exa-1898957330-mple,1742918938773,https://uiuc.sona-systems.com/webstudy_credit.aspxexperiment_id=&credit_token=&survey_code=,"{'assignmentId': '', 'hitId': '', 'workerId': '', 'turkSubmitTo': '', 'previewMode': False, 'outsideTurk': True, 'platform': 'turk'}",[],,,,,,,,,,src/images/main/291.jpg,74.0,j,no GAD,291.0,False,False,1.0,False,,,
603.4000000953674,,main,1,single-stim-rev-cor-trial,146,328668,judging_faces,,,,,False,True,turk,2025-03-25T16:08:58Z,gad,2025-03-25T16:22:00Z,779714,"""100.64.0.2""",2025-03-11,b7rgecm91q5gwpo,False,2785118609-exa-1898957330-mple,1742918938773,https://uiuc.sona-systems.com/webstudy_credit.aspxexperiment_id=&credit_token=&survey_code=,"{'assignmentId': '', 'hitId': '', 'workerId': '', 'turkSubmitTo': '', 'previewMode': False, 'outsideTurk': True, 'platform': 'turk'}",[],,,,,,,,,,src/images/main/195.jpg,74.0,j,no GAD,195.0,False,False,1.0,False,,,
747.6000001430511,,main_repeat,1,single-stim-rev-cor-trial,147,329418,judging_faces,,,,,False,True,turk,2025-03-25T16:08:58Z,gad,2025-03-25T16:22:00Z,779714,"""100.64.0.2""",2025-03-11,b7rgecm91q5gwpo,False,2785118609-exa-1898957330-mple,1742918938773,https://uiuc.sona-systems.com/webstudy_credit.aspxexperiment_id=&credit_token=&survey_code=,"{'assignmentId': '', 'hitId': '', 'workerId': '', 'turkSubmitTo': '', 'previewMode': False, 'outsideTurk': True, 'platform': 'turk'}",[],,,,,,,,,,src/images/main/130.jpg,70.0,f,GAD,130.0,False,True,2.0,True,,,
1511.5,,main,1,single-stim-rev-cor-trial,148,330931,judging_faces,,,,,False,True,turk,2025-03-25T16:08:58Z,gad,2025-03-25T16:22:00Z,779714,"""100.64.0.2""",2025-03-11,b7rgecm91q5gwpo,False,2785118609-exa-1898957330-mple,1742918938773,https://uiuc.sona-systems.com/webstudy_credit.aspxexperiment_id=&credit_token=&survey_code=,"{'assignmentId': '', 'hitId': '', 'workerId': '', 'turkSubmitTo': '', 'previewMode': False, 'outsideTurk': True, 'platform': 'turk'}",[],,,,,,,,,,src/images/main/226.jpg,74.0,j,no GAD,226.0,False,False,1.0,False,,,
974.2000000476837,,main,1,single-stim-rev-cor-trial,149,331907,judging_faces,,,,,False,True,turk,2025-03-25T16:08:58Z,gad,2025-03-25T16:22:00Z,779714,"""100.64.0.2""",2025-03-11,b7rgecm91q5gwpo,False,2785118609-exa-1898957330-mple,1742918938773,https://uiuc.sona-systems.com/webstudy_credit.aspxexperiment_id=&credit_token=&survey_code=,"{'assignmentId': '', 'hitId': '', 'workerId': '', 'turkSubmitTo': '', 'previewMode': False, 'outsideTurk': True, 'platform': 'turk'}",[],,,,,,,,,,src/images/main/127.jpg,74.0,j,no GAD,127.0,False,False,1.0,False,,,
681.8999998569489,,main,1,single-stim-rev-cor-trial,150,332591,judging_faces,,,,,False,True,turk,2025-03-25T16:08:58Z,gad,2025-03-25T16:22:00Z,779714,"""100.64.0.2""",2025-03-11,b7rgecm91q5gwpo,False,2785118609-exa-1898957330-mple,1742918938773,https://uiuc.sona-systems.com/webstudy_credit.aspxexperiment_id=&credit_token=&survey_code=,"{'assignmentId': '', 'hitId': '', 'workerId': '', 'turkSubmitTo': '', 'previewMode': False, 'outsideTurk': True, 'platform': 'turk'}",[],,,,,,,,,,src/images/main/58.jpg,74.0,j,no GAD,58.0,False,False,1.0,False,,,
1173.0999999046326,,main,1,single-stim-rev-cor-trial,151,333766,judging_faces,,,,,False,True,turk,2025-03-25T16:08:58Z,gad,2025-03-25T16:22:00Z,779714,"""100.64.0.2""",2025-03-11,b7rgecm91q5gwpo,False,2785118609-exa-1898957330-mple,1742918938773,https://uiuc.sona-systems.com/webstudy_credit.aspxexperiment_id=&credit_token=&survey_code=,"{'assignmentId': '', 'hitId': '', 'workerId': '', 'turkSubmitTo': '', 'previewMode': False, 'outsideTurk': True, 'platform': 'turk'}",[],,,,,,,,,,src/images/main/132.jpg,74.0,j,no GAD,132.0,False,False,1.0,False,,,
518.0,,main,1,single-stim-rev-cor-trial,152,334286,judging_faces,,,,,False,True,turk,2025-03-25T16:08:58Z,gad,2025-03-25T16:22:00Z,779714,"""100.64.0.2""",2025-03-11,b7rgecm91q5gwpo,False,2785118609-exa-1898957330-mple,1742918938773,https://uiuc.sona-systems.com/webstudy_credit.aspxexperiment_id=&credit_token=&survey_code=,"{'assignmentId': '', 'hitId': '', 'workerId': '', 'turkSubmitTo': '', 'previewMode': False, 'outsideTurk': True, 'platform': 'turk'}",[],,,,,,,,,,src/images/main/124.jpg,74.0,j,no GAD,124.0,False,False,1.0,False,,,
903.6999998092651,,main,1,single-stim-rev-cor-trial,153,335192,judging_faces,,,,,False,True,turk,2025-03-25T16:08:58Z,gad,2025-03-25T16:22:00Z,779714,"""100.64.0.2""",2025-03-11,b7rgecm91q5gwpo,False,2785118609-exa-1898957330-mple,1742918938773,https://uiuc.sona-systems.com/webstudy_credit.aspxexperiment_id=&credit_token=&survey_code=,"{'assignmentId': '', 'hitId': '', 'workerId': '', 'turkSubmitTo': '', 'previewMode': False, 'outsideTurk': True, 'platform': 'turk'}",[],,,,,,,,,,src/images/main/94.jpg,70.0,f,GAD,94.0,False,True,1.0,False,,,
979.0,,main,1,single-stim-rev-cor-trial,154,336173,judging_faces,,,,,False,True,turk,2025-03-25T16:08:58Z,gad,2025-03-25T16:22:00Z,779714,"""100.64.0.2""",2025-03-11,b7rgecm91q5gwpo,False,2785118609-exa-1898957330-mple,1742918938773,https://uiuc.sona-systems.com/webstudy_credit.aspxexperiment_id=&credit_token=&survey_code=,"{'assignmentId': '', 'hitId': '', 'workerId': '', 'turkSubmitTo': '', 'previewMode': False, 'outsideTurk': True, 'platform': 'turk'}",[],,,,,,,,,,src/images/main/188.jpg,70.0,f,GAD,188.0,False,True,1.0,False,,,
1498.9000000953674,,main_repeat,1,single-stim-rev-cor-trial,155,337673,judging_faces,,,,,False,True,turk,2025-03-25T16:08:58Z,gad,2025-03-25T16:22:00Z,779714,"""100.64.0.2""",2025-03-11,b7rgecm91q5gwpo,False,2785118609-exa-1898957330-mple,1742918938773,https://uiuc.sona-systems.com/webstudy_credit.aspxexperiment_id=&credit_token=&survey_code=,"{'assignmentId': '', 'hitId': '', 'workerId': '', 'turkSubmitTo': '', 'previewMode': False, 'outsideTurk': True, 'platform': 'turk'}",[],,,,,,,,,,src/images/main/79.jpg,70.0,f,GAD,79.0,False,True,2.0,True,,,
726.1000001430511,,main_repeat,1,single-stim-rev-cor-trial,156,338401,judging_faces,,,,,False,True,turk,2025-03-25T16:08:58Z,gad,2025-03-25T16:22:00Z,779714,"""100.64.0.2""",2025-03-11,b7rgecm91q5gwpo,False,2785118609-exa-1898957330-mple,1742918938773,https://uiuc.sona-systems.com/webstudy_credit.aspxexperiment_id=&credit_token=&survey_code=,"{'assignmentId': '', 'hitId': '', 'workerId': '', 'turkSubmitTo': '', 'previewMode': False, 'outsideTurk': True, 'platform': 'turk'}",[],,,,,,,,,,src/images/main/117.jpg,70.0,f,GAD,117.0,False,True,2.0,True,,,
962.8999998569489,,main,1,single-stim-rev-cor-trial,157,339365,judging_faces,,,,,False,True,turk,2025-03-25T16:08:58Z,gad,2025-03-25T16:22:00Z,779714,"""100.64.0.2""",2025-03-11,b7rgecm91q5gwpo,False,2785118609-exa-1898957330-mple,1742918938773,https://uiuc.sona-systems.com/webstudy_credit.aspxexperiment_id=&credit_token=&survey_code=,"{'assignmentId': '', 'hitId': '', 'workerId': '', 'turkSubmitTo': '', 'previewMode': False, 'outsideTurk': True, 'platform': 'turk'}",[],,,,,,,,,,src/images/main/278.jpg,70.0,f,GAD,278.0,False,True,1.0,False,,,
785.5,,main,1,single-stim-rev-cor-trial,158,340152,judging_faces,,,,,False,True,turk,2025-03-25T16:08:58Z,gad,2025-03-25T16:22:00Z,779714,"""100.64.0.2""",2025-03-11,b7rgecm91q5gwpo,False,2785118609-exa-1898957330-mple,1742918938773,https://uiuc.sona-systems.com/webstudy_credit.aspxexperiment_id=&credit_token=&survey_code=,"{'assignmentId': '', 'hitId': '', 'workerId': '', 'turkSubmitTo': '', 'previewMode': False, 'outsideTurk': True, 'platform': 'turk'}",[],,,,,,,,,,src/images/main/174.jpg,74.0,j,no GAD,174.0,False,False,1.0,False,,,
1222.4000000953674,,main,1,single-stim-rev-cor-trial,159,341376,judging_faces,,,,,False,True,turk,2025-03-25T16:08:58Z,gad,2025-03-25T16:22:00Z,779714,"""100.64.0.2""",2025-03-11,b7rgecm91q5gwpo,False,2785118609-exa-1898957330-mple,1742918938773,https://uiuc.sona-systems.com/webstudy_credit.aspxexperiment_id=&credit_token=&survey_code=,"{'assignmentId': '', 'hitId': '', 'workerId': '', 'turkSubmitTo': '', 'previewMode': False, 'outsideTurk': True, 'platform': 'turk'}",[],,,,,,,,,,src/images/main/17.jpg,74.0,j,no GAD,17.0,False,False,1.0,False,,,
640.5,,main,1,single-stim-rev-cor-trial,160,342019,judging_faces,,,,,False,True,turk,2025-03-25T16:08:58Z,gad,2025-03-25T16:22:00Z,779714,"""100.64.0.2""",2025-03-11,b7rgecm91q5gwpo,False,2785118609-exa-1898957330-mple,1742918938773,https://uiuc.sona-systems.com/webstudy_credit.aspxexperiment_id=&credit_token=&survey_code=,"{'assignmentId': '', 'hitId': '', 'workerId': '', 'turkSubmitTo': '', 'previewMode': False, 'outsideTurk': True, 'platform': 'turk'}",[],,,,,,,,,,src/images/main/59.jpg,74.0,j,no GAD,59.0,False,False,1.0,False,,,
69214.89999985695,,main,1,single-stim-rev-cor-trial,161,411234,judging_faces,,,,,False,True,turk,2025-03-25T16:08:58Z,gad,2025-03-25T16:22:00Z,779714,"""100.64.0.2""",2025-03-11,b7rgecm91q5gwpo,False,2785118609-exa-1898957330-mple,1742918938773,https://uiuc.sona-systems.com/webstudy_credit.aspxexperiment_id=&credit_token=&survey_code=,"{'assignmentId': '', 'hitId': '', 'workerId': '', 'turkSubmitTo': '', 'previewMode': False, 'outsideTurk': True, 'platform': 'turk'}",[],,,,,,,,,,src/images/main/228.jpg,74.0,j,no GAD,228.0,False,False,1.0,False,,,
824.9000000953674,,main,1,single-stim-rev-cor-trial,162,412061,judging_faces,,,,,False,True,turk,2025-03-25T16:08:58Z,gad,2025-03-25T16:22:00Z,779714,"""100.64.0.2""",2025-03-11,b7rgecm91q5gwpo,False,2785118609-exa-1898957330-mple,1742918938773,https://uiuc.sona-systems.com/webstudy_credit.aspxexperiment_id=&credit_token=&survey_code=,"{'assignmentId': '', 'hitId': '', 'workerId': '', 'turkSubmitTo': '', 'previewMode': False, 'outsideTurk': True, 'platform': 'turk'}",[],,,,,,,,,,src/images/main/175.jpg,74.0,j,no GAD,175.0,False,False,1.0,False,,,
1984.9000000953674,,main_repeat,1,single-stim-rev-cor-trial,163,414047,judging_faces,,,,,False,True,turk,2025-03-25T16:08:58Z,gad,2025-03-25T16:22:00Z,779714,"""100.64.0.2""",2025-03-11,b7rgecm91q5gwpo,False,2785118609-exa-1898957330-mple,1742918938773,https://uiuc.sona-systems.com/webstudy_credit.aspxexperiment_id=&credit_token=&survey_code=,"{'assignmentId': '', 'hitId': '', 'workerId': '', 'turkSubmitTo': '', 'previewMode': False, 'outsideTurk': True, 'platform': 'turk'}",[],,,,,,,,,,src/images/main/70.jpg,70.0,f,GAD,70.0,False,True,2.0,True,,,
927.0,,main,1,single-stim-rev-cor-trial,164,414976,judging_faces,,,,,False,True,turk,2025-03-25T16:08:58Z,gad,2025-03-25T16:22:00Z,779714,"""100.64.0.2""",2025-03-11,b7rgecm91q5gwpo,False,2785118609-exa-1898957330-mple,1742918938773,https://uiuc.sona-systems.com/webstudy_credit.aspxexperiment_id=&credit_token=&survey_code=,"{'assignmentId': '', 'hitId': '', 'workerId': '', 'turkSubmitTo': '', 'previewMode': False, 'outsideTurk': True, 'platform': 'turk'}",[],,,,,,,,,,src/images/main/268.jpg,70.0,f,GAD,268.0,False,True,1.0,False,,,
928.2999999523163,,main,1,single-stim-rev-cor-trial,165,415905,judging_faces,,,,,False,True,turk,2025-03-25T16:08:58Z,gad,2025-03-25T16:22:00Z,779714,"""100.64.0.2""",2025-03-11,b7rgecm91q5gwpo,False,2785118609-exa-1898957330-mple,1742918938773,https://uiuc.sona-systems.com/webstudy_credit.aspxexperiment_id=&credit_token=&survey_code=,"{'assignmentId': '', 'hitId': '', 'workerId': '', 'turkSubmitTo': '', 'previewMode': False, 'outsideTurk': True, 'platform': 'turk'}",[],,,,,,,,,,src/images/main/87.jpg,70.0,f,GAD,87.0,False,True,1.0,False,,,
732.7000000476837,,main,1,single-stim-rev-cor-trial,166,416640,judging_faces,,,,,False,True,turk,2025-03-25T16:08:58Z,gad,2025-03-25T16:22:00Z,779714,"""100.64.0.2""",2025-03-11,b7rgecm91q5gwpo,False,2785118609-exa-1898957330-mple,1742918938773,https://uiuc.sona-systems.com/webstudy_credit.aspxexperiment_id=&credit_token=&survey_code=,"{'assignmentId': '', 'hitId': '', 'workerId': '', 'turkSubmitTo': '', 'previewMode': False, 'outsideTurk': True, 'platform': 'turk'}",[],,,,,,,,,,src/images/main/11.jpg,70.0,f,GAD,11.0,False,True,1.0,False,,,
709.0,,main,1,single-stim-rev-cor-trial,167,417350,judging_faces,,,,,False,True,turk,2025-03-25T16:08:58Z,gad,2025-03-25T16:22:00Z,779714,"""100.64.0.2""",2025-03-11,b7rgecm91q5gwpo,False,2785118609-exa-1898957330-mple,1742918938773,https://uiuc.sona-systems.com/webstudy_credit.aspxexperiment_id=&credit_token=&survey_code=,"{'assignmentId': '', 'hitId': '', 'workerId': '', 'turkSubmitTo': '', 'previewMode': False, 'outsideTurk': True, 'platform': 'turk'}",[],,,,,,,,,,src/images/main/97.jpg,74.0,j,no GAD,97.0,False,False,1.0,False,,,
751.3999998569489,,main_repeat,1,single-stim-rev-cor-trial,168,418104,judging_faces,,,,,False,True,turk,2025-03-25T16:08:58Z,gad,2025-03-25T16:22:00Z,779714,"""100.64.0.2""",2025-03-11,b7rgecm91q5gwpo,False,2785118609-exa-1898957330-mple,1742918938773,https://uiuc.sona-systems.com/webstudy_credit.aspxexperiment_id=&credit_token=&survey_code=,"{'assignmentId': '', 'hitId': '', 'workerId': '', 'turkSubmitTo': '', 'previewMode': False, 'outsideTurk': True, 'platform': 'turk'}",[],,,,,,,,,,src/images/main/115.jpg,74.0,j,no GAD,115.0,False,False,2.0,True,,,
1626.5,,main,1,single-stim-rev-cor-trial,169,419732,judging_faces,,,,,False,True,turk,2025-03-25T16:08:58Z,gad,2025-03-25T16:22:00Z,779714,"""100.64.0.2""",2025-03-11,b7rgecm91q5gwpo,False,2785118609-exa-1898957330-mple,1742918938773,https://uiuc.sona-systems.com/webstudy_credit.aspxexperiment_id=&credit_token=&survey_code=,"{'assignmentId': '', 'hitId': '', 'workerId': '', 'turkSubmitTo': '', 'previewMode': False, 'outsideTurk': True, 'platform': 'turk'}",[],,,,,,,,,,src/images/main/257.jpg,70.0,f,GAD,257.0,False,True,1.0,False,,,
803.7000000476837,,main,1,single-stim-rev-cor-trial,170,420537,judging_faces,,,,,False,True,turk,2025-03-25T16:08:58Z,gad,2025-03-25T16:22:00Z,779714,"""100.64.0.2""",2025-03-11,b7rgecm91q5gwpo,False,2785118609-exa-1898957330-mple,1742918938773,https://uiuc.sona-systems.com/webstudy_credit.aspxexperiment_id=&credit_token=&survey_code=,"{'assignmentId': '', 'hitId': '', 'workerId': '', 'turkSubmitTo': '', 'previewMode': False, 'outsideTurk': True, 'platform': 'turk'}",[],,,,,,,,,,src/images/main/106.jpg,74.0,j,no GAD,106.0,False,False,1.0,False,,,
698.9000000953674,,main,1,single-stim-rev-cor-trial,171,421238,judging_faces,,,,,False,True,turk,2025-03-25T16:08:58Z,gad,2025-03-25T16:22:00Z,779714,"""100.64.0.2""",2025-03-11,b7rgecm91q5gwpo,False,2785118609-exa-1898957330-mple,1742918938773,https://uiuc.sona-systems.com/webstudy_credit.aspxexperiment_id=&credit_token=&survey_code=,"{'assignmentId': '', 'hitId': '', 'workerId': '', 'turkSubmitTo': '', 'previewMode': False, 'outsideTurk': True, 'platform': 'turk'}",[],,,,,,,,,,src/images/main/163.jpg,70.0,f,GAD,163.0,False,True,1.0,False,,,
740.3999998569489,,main,1,single-stim-rev-cor-trial,172,421981,judging_faces,,,,,False,True,turk,2025-03-25T16:08:58Z,gad,2025-03-25T16:22:00Z,779714,"""100.64.0.2""",2025-03-11,b7rgecm91q5gwpo,False,2785118609-exa-1898957330-mple,1742918938773,https://uiuc.sona-systems.com/webstudy_credit.aspxexperiment_id=&credit_token=&survey_code=,"{'assignmentId': '', 'hitId': '', 'workerId': '', 'turkSubmitTo': '', 'previewMode': False, 'outsideTurk': True, 'platform': 'turk'}",[],,,,,,,,,,src/images/main/23.jpg,74.0,j,no GAD,23.0,False,False,1.0,False,,,
993.5999999046326,,main,1,single-stim-rev-cor-trial,173,422976,judging_faces,,,,,False,True,turk,2025-03-25T16:08:58Z,gad,2025-03-25T16:22:00Z,779714,"""100.64.0.2""",2025-03-11,b7rgecm91q5gwpo,False,2785118609-exa-1898957330-mple,1742918938773,https://uiuc.sona-systems.com/webstudy_credit.aspxexperiment_id=&credit_token=&survey_code=,"{'assignmentId': '', 'hitId': '', 'workerId': '', 'turkSubmitTo': '', 'previewMode': False, 'outsideTurk': True, 'platform': 'turk'}",[],,,,,,,,,,src/images/main/113.jpg,70.0,f,GAD,113.0,False,True,1.0,False,,,
734.6999998092651,,main,1,single-stim-rev-cor-trial,174,423713,judging_faces,,,,,False,True,turk,2025-03-25T16:08:58Z,gad,2025-03-25T16:22:00Z,779714,"""100.64.0.2""",2025-03-11,b7rgecm91q5gwpo,False,2785118609-exa-1898957330-mple,1742918938773,https://uiuc.sona-systems.com/webstudy_credit.aspxexperiment_id=&credit_token=&survey_code=,"{'assignmentId': '', 'hitId': '', 'workerId': '', 'turkSubmitTo': '', 'previewMode': False, 'outsideTurk': True, 'platform': 'turk'}",[],,,,,,,,,,src/images/main/239.jpg,74.0,j,no GAD,239.0,False,False,1.0,False,,,
1019.5,,main,1,single-stim-rev-cor-trial,175,424734,judging_faces,,,,,False,True,turk,2025-03-25T16:08:58Z,gad,2025-03-25T16:22:00Z,779714,"""100.64.0.2""",2025-03-11,b7rgecm91q5gwpo,False,2785118609-exa-1898957330-mple,1742918938773,https://uiuc.sona-systems.com/webstudy_credit.aspxexperiment_id=&credit_token=&survey_code=,"{'assignmentId': '', 'hitId': '', 'workerId': '', 'turkSubmitTo': '', 'previewMode': False, 'outsideTurk': True, 'platform': 'turk'}",[],,,,,,,,,,src/images/main/215.jpg,70.0,f,GAD,215.0,False,True,1.0,False,,,
1028.7999999523163,,main,1,single-stim-rev-cor-trial,176,425764,judging_faces,,,,,False,True,turk,2025-03-25T16:08:58Z,gad,2025-03-25T16:22:00Z,779714,"""100.64.0.2""",2025-03-11,b7rgecm91q5gwpo,False,2785118609-exa-1898957330-mple,1742918938773,https://uiuc.sona-systems.com/webstudy_credit.aspxexperiment_id=&credit_token=&survey_code=,"{'assignmentId': '', 'hitId': '', 'workerId': '', 'turkSubmitTo': '', 'previewMode': False, 'outsideTurk': True, 'platform': 'turk'}",[],,,,,,,,,,src/images/main/181.jpg,74.0,j,no GAD,181.0,False,False,1.0,False,,,
5175.399999856949,,main,1,single-stim-rev-cor-trial,177,430941,judging_faces,,,,,False,True,turk,2025-03-25T16:08:58Z,gad,2025-03-25T16:22:00Z,779714,"""100.64.0.2""",2025-03-11,b7rgecm91q5gwpo,False,2785118609-exa-1898957330-mple,1742918938773,https://uiuc.sona-systems.com/webstudy_credit.aspxexperiment_id=&credit_token=&survey_code=,"{'assignmentId': '', 'hitId': '', 'workerId': '', 'turkSubmitTo': '', 'previewMode': False, 'outsideTurk': True, 'platform': 'turk'}",[],,,,,,,,,,src/images/main/271.jpg,74.0,j,no GAD,271.0,False,False,1.0,False,,,
784.0999999046326,,main,1,single-stim-rev-cor-trial,178,431727,judging_faces,,,,,False,True,turk,2025-03-25T16:08:58Z,gad,2025-03-25T16:22:00Z,779714,"""100.64.0.2""",2025-03-11,b7rgecm91q5gwpo,False,2785118609-exa-1898957330-mple,1742918938773,https://uiuc.sona-systems.com/webstudy_credit.aspxexperiment_id=&credit_token=&survey_code=,"{'assignmentId': '', 'hitId': '', 'workerId': '', 'turkSubmitTo': '', 'previewMode': False, 'outsideTurk': True, 'platform': 'turk'}",[],,,,,,,,,,src/images/main/71.jpg,70.0,f,GAD,71.0,False,True,1.0,False,,,
934.8999998569489,,main,1,single-stim-rev-cor-trial,179,432663,judging_faces,,,,,False,True,turk,2025-03-25T16:08:58Z,gad,2025-03-25T16:22:00Z,779714,"""100.64.0.2""",2025-03-11,b7rgecm91q5gwpo,False,2785118609-exa-1898957330-mple,1742918938773,https://uiuc.sona-systems.com/webstudy_credit.aspxexperiment_id=&credit_token=&survey_code=,"{'assignmentId': '', 'hitId': '', 'workerId': '', 'turkSubmitTo': '', 'previewMode': False, 'outsideTurk': True, 'platform': 'turk'}",[],,,,,,,,,,src/images/main/225.jpg,70.0,f,GAD,225.0,False,True,1.0,False,,,
